reward_today,future_reward,delay,trials.thisRepN,trials.thisTrialN,trials.thisN,trials.thisIndex,thisRow.t,notes,trial.started,fixation.started,text.started,key_resp.started,fixation.stopped,trial.stopped,key_resp.keys,key_resp.rt,key_resp.duration,participant,session,date,expName,psychopyVersion,frameRate,expStart,
67,75,119,0,0,0,5,0.1578896000282839,,0.01365760003682226,0.1578896000282839,1.0010490999557078,1.0010490999557078,1.1675342000089586,3.329266499960795,t,2.164260199991986,None,01,001,2024-11-18_08h55.44.741,7.0 Delay Discounting,2024.1.5,None,2024-11-18 08h55.58.565069 +0530,
49,60,89,0,1,1,4,3.342189299990423,,3.3306005999911577,3.342189299990423,4.345970600028522,4.345970600028522,4.345970600028522,5.498333600000478,l,1.1487290000077337,None,01,001,2024-11-18_08h55.44.741,7.0 Delay Discounting,2024.1.5,None,2024-11-18 08h55.58.565069 +0530,
27,50,21,0,2,2,2,5.529210299951956,,5.500515099964105,5.529210299951956,6.509092699969187,6.509092699969187,6.542352000018582,9.107733799959533,l,2.591311200056225,None,01,001,2024-11-18_08h55.44.741,7.0 Delay Discounting,2024.1.5,None,2024-11-18 08h55.58.565069 +0530,
15,35,13,0,3,3,1,9.136354999965988,,9.109866800019518,9.136354999965988,10.119997299974784,10.119997299974784,10.136567599955015,12.48530269996263,l,2.347814100096002,None,01,001,2024-11-18_08h55.44.741,7.0 Delay Discounting,2024.1.5,None,2024-11-18 08h55.58.565069 +0530,
78,80,162,0,4,4,6,12.50726590002887,,12.48752029996831,12.50726590002887,13.497788699925877,13.497788699925877,13.514384699985385,15.098069299943745,t,1.5926784999901429,None,01,001,2024-11-18_08h55.44.741,7.0 Delay Discounting,2024.1.5,None,2024-11-18 08h55.58.565069 +0530,
40,55,62,0,5,5,3,15.122301199939102,,15.10025030001998,15.122301199939102,16.110308500006795,16.110308500006795,16.126919799949974,19.208380399970338,t,3.0856961000245064,None,01,001,2024-11-18_08h55.44.741,7.0 Delay Discounting,2024.1.5,None,2024-11-18 08h55.58.565069 +0530,
11,30,7,0,6,6,0,19.23276199994143,,19.2106753999833,19.23276199994143,20.220431399997324,20.220431399997324,20.237023400026374,23.734107799944468,l,3.5047450000420213,None,01,001,2024-11-18_08h55.44.741,7.0 Delay Discounting,2024.1.5,None,2024-11-18 08h55.58.565069 +0530,
27,50,21,1,0,7,2,23.760022799950093,,23.736955299973488,23.760022799950093,24.746369099942967,24.746369099942967,24.76315449993126,27.07903839997016,t,2.3179996999679133,None,01,001,2024-11-18_08h55.44.741,7.0 Delay Discounting,2024.1.5,None,2024-11-18 08h55.58.565069 +0530,
40,55,62,1,1,8,3,27.101914800005034,,27.081224799971096,27.101914800005034,28.091016300022602,28.091016300022602,28.107704999973066,30.041043199948035,t,1.9454861999256536,None,01,001,2024-11-18_08h55.44.741,7.0 Delay Discounting,2024.1.5,None,2024-11-18 08h55.58.565069 +0530,
15,35,13,1,2,9,1,30.064486099989153,,30.043255200027488,30.064486099989153,31.05300780001562,31.05300780001562,31.06956670002546,33.135596700012684,l,2.064631599932909,None,01,001,2024-11-18_08h55.44.741,7.0 Delay Discounting,2024.1.5,None,2024-11-18 08h55.58.565069 +0530,
49,60,89,1,3,10,4,33.158521199948154,,33.1377934999764,33.158521199948154,34.14785409998149,34.14785409998149,34.164628400001675,37.1308678999776,t,2.9793178000254557,None,01,001,2024-11-18_08h55.44.741,7.0 Delay Discounting,2024.1.5,None,2024-11-18 08h55.58.565069 +0530,
67,75,119,1,4,11,5,37.15335989999585,,37.13305359997321,37.15335989999585,38.1415219999617,38.1415219999617,38.15823770000134,39.89156329992693,t,1.7428713999688625,None,01,001,2024-11-18_08h55.44.741,7.0 Delay Discounting,2024.1.5,None,2024-11-18 08h55.58.565069 +0530,
78,80,162,1,5,12,6,39.91604849998839,,39.893854700028896,39.91604849998839,40.90387679997366,40.90387679997366,40.9205643000314,42.83667550003156,t,1.9149664000142366,None,01,001,2024-11-18_08h55.44.741,7.0 Delay Discounting,2024.1.5,None,2024-11-18 08h55.58.565069 +0530,
11,30,7,1,6,13,0,42.85902830003761,,42.83894029993098,42.85902830003761,43.84907100000419,43.84907100000419,43.865737900021486,47.377546199946664,l,3.526093199965544,None,01,001,2024-11-18_08h55.44.741,7.0 Delay Discounting,2024.1.5,None,2024-11-18 08h55.58.565069 +0530,
40,55,62,2,0,14,3,47.392733499989845,,47.37849729997106,47.392733499989845,48.39180129999295,48.39180129999295,48.40865659993142,51.540009499993175,t,3.1333228000439703,None,01,001,2024-11-18_08h55.44.741,7.0 Delay Discounting,2024.1.5,None,2024-11-18 08h55.58.565069 +0530,
49,60,89,2,1,15,4,51.562908399966545,,51.54218580003362,51.562908399966545,52.5516898999922,52.5516898999922,52.56837480003014,58.46235229994636,t,5.905484999995679,None,01,001,2024-11-18_08h55.44.741,7.0 Delay Discounting,2024.1.5,None,2024-11-18 08h55.58.565069 +0530,
27,50,21,2,2,16,2,58.48554879997391,,58.46458389994223,58.48554879997391,59.47429199994076,59.47429199994076,59.49065679998603,61.53875449998304,l,2.049163500079885,None,01,001,2024-11-18_08h55.44.741,7.0 Delay Discounting,2024.1.5,None,2024-11-18 08h55.58.565069 +0530,
15,35,13,2,3,17,1,61.55358249996789,,61.5400665999623,61.55358249996789,62.55233380000573,62.55233380000573,62.568879100028425,64.35250859998632,l,1.7917263000272214,None,01,001,2024-11-18_08h55.44.741,7.0 Delay Discounting,2024.1.5,None,2024-11-18 08h55.58.565069 +0530,
78,80,162,2,4,18,6,64.37545809999574,,64.35500370000955,64.37545809999574,65.36440469999798,65.36440469999798,65.38122019998264,66.72952299995814,t,1.351540100062266,None,01,001,2024-11-18_08h55.44.741,7.0 Delay Discounting,2024.1.5,None,2024-11-18 08h55.58.565069 +0530,
11,30,7,2,5,19,0,66.74509079998825,,66.73042459995486,66.74509079998825,67.74403479998,67.74403479998,67.76049369992688,69.69409250002354,l,1.9409492000704631,None,01,001,2024-11-18_08h55.44.741,7.0 Delay Discounting,2024.1.5,None,2024-11-18 08h55.58.565069 +0530,
67,75,119,2,6,20,5,69.71753439994063,,69.6964320000261,69.71753439994063,70.70596109994221,70.70596109994221,70.72250499995425,72.82182549999561,t,2.1087365000275895,None,01,001,2024-11-18_08h55.44.741,7.0 Delay Discounting,2024.1.5,None,2024-11-18 08h55.58.565069 +0530,
27,50,21,3,0,21,2,72.84679510002024,,72.82408910000231,72.84679510002024,73.83432909997646,73.83432909997646,73.85088619997259,82.87325379997492,t,9.034324700012803,None,01,001,2024-11-18_08h55.44.741,7.0 Delay Discounting,2024.1.5,None,2024-11-18 08h55.58.565069 +0530,
11,30,7,3,1,22,0,82.89659899997059,,82.875439299969,82.89659899997059,83.88477160001639,83.88477160001639,83.90135149995331,86.3836297999369,l,2.489945799927227,None,01,001,2024-11-18_08h55.44.741,7.0 Delay Discounting,2024.1.5,None,2024-11-18 08h55.58.565069 +0530,
67,75,119,3,2,23,5,86.40735779993702,,86.38586399995256,86.40735779993702,87.39580399997067,87.39580399997067,87.41232829994988,88.93005710002035,t,1.5285436999984086,None,01,001,2024-11-18_08h55.44.741,7.0 Delay Discounting,2024.1.5,None,2024-11-18 08h55.58.565069 +0530,
15,35,13,3,3,24,1,88.95591849996708,,88.93223759997636,88.95591849996708,89.94187229999807,89.94187229999807,89.95822439994663,91.1094868000364,l,1.1572093999711797,None,01,001,2024-11-18_08h55.44.741,7.0 Delay Discounting,2024.1.5,None,2024-11-18 08h55.58.565069 +0530,
78,80,162,3,4,25,6,91.13341689994559,,91.11210689996369,91.13341689994559,92.12141649995465,92.12141649995465,92.13817129994277,93.33918150002137,t,1.2099422999890521,None,01,001,2024-11-18_08h55.44.741,7.0 Delay Discounting,2024.1.5,None,2024-11-18 08h55.58.565069 +0530,
40,55,62,3,5,26,3,93.36292210000101,,93.34155789995566,93.36292210000101,94.35120349994395,94.35120349994395,94.36796890001278,100.27835789998062,t,5.920289300032891,None,01,001,2024-11-18_08h55.44.741,7.0 Delay Discounting,2024.1.5,None,2024-11-18 08h55.58.565069 +0530,
49,60,89,3,6,27,4,100.30202289996669,,100.28085149999242,100.30202289996669,101.29001739993691,101.29001739993691,101.30679489998147,103.82216450001579,t,2.5156600000336766,None,01,001,2024-11-18_08h55.44.741,7.0 Delay Discounting,2024.1.5,None,2024-11-18 08h55.58.565069 +0530,
15,35,13,4,0,28,1,103.84669319994282,,103.82428319996689,103.84669319994282,104.83440179994795,104.83440179994795,104.85104560002219,106.95085769996513,l,2.1081891000503674,None,01,001,2024-11-18_08h55.44.741,7.0 Delay Discounting,2024.1.5,None,2024-11-18 08h55.58.565069 +0530,
40,55,62,4,1,29,3,106.97437539999373,,106.95302739995532,106.97437539999373,107.96273269993253,107.96273269993253,107.97933460003696,111.2770162000088,t,3.304536600015126,None,01,001,2024-11-18_08h55.44.741,7.0 Delay Discounting,2024.1.5,None,2024-11-18 08h55.58.565069 +0530,
11,30,7,4,2,30,0,111.30344739998691,,111.27923989994451,111.30344739998691,112.2890678999247,112.2890678999247,112.3056065000128,113.77315809996799,l,1.472316899918951,None,01,001,2024-11-18_08h55.44.741,7.0 Delay Discounting,2024.1.5,None,2024-11-18 08h55.58.565069 +0530,
67,75,119,4,3,31,5,113.79826559999492,,113.77555030002259,113.79826559999492,114.78497549996246,114.78497549996246,114.80172879993916,120.295689499937,t,5.498825300019234,None,01,001,2024-11-18_08h55.44.741,7.0 Delay Discounting,2024.1.5,None,2024-11-18 08h55.58.565069 +0530,
49,60,89,4,4,32,4,120.31933770002797,,120.2980390000157,120.31933770002797,121.3078674999997,121.3078674999997,121.32455389993265,126.53575619996991,t,5.213763599982485,None,01,001,2024-11-18_08h55.44.741,7.0 Delay Discounting,2024.1.5,None,2024-11-18 08h55.58.565069 +0530,
78,80,162,4,5,33,6,126.55924400000367,,126.53804659994785,126.55924400000367,127.5479372999398,127.5479372999398,127.56456269999035,131.27815829997417,t,3.7212979999603704,None,01,001,2024-11-18_08h55.44.741,7.0 Delay Discounting,2024.1.5,None,2024-11-18 08h55.58.565069 +0530,
27,50,21,4,6,34,2,131.30181750003248,,131.28037609998137,131.30181750003248,132.2903471000027,132.2903471000027,132.30678620003164,136.20371030003298,t,3.8996658999240026,None,01,001,2024-11-18_08h55.44.741,7.0 Delay Discounting,2024.1.5,None,2024-11-18 08h55.58.565069 +0530,
15,35,13,5,0,35,1,136.22814619995188,,136.20612250000704,136.22814619995188,137.215651000035,137.215651000035,137.23228749993723,139.74640129995532,l,2.5154303999152035,None,01,001,2024-11-18_08h55.44.741,7.0 Delay Discounting,2024.1.5,None,2024-11-18 08h55.58.565069 +0530,
78,80,162,5,1,36,6,139.76118749997113,,139.74772360001225,139.76118749997113,140.75972740002908,140.75972740002908,140.7763616000302,141.6267396999756,t,0.8510666000656784,None,01,001,2024-11-18_08h55.44.741,7.0 Delay Discounting,2024.1.5,None,2024-11-18 08h55.58.565069 +0530,
27,50,21,5,2,37,2,141.64150329993572,,141.62799019995145,141.64150329993572,142.64030369999819,142.64030369999819,142.6570037000347,143.15915820002556,l,0.505839699995704,None,01,001,2024-11-18_08h55.44.741,7.0 Delay Discounting,2024.1.5,None,2024-11-18 08h55.58.565069 +0530,
49,60,89,5,3,38,4,143.1840639000293,,143.16144669998903,143.1840639000293,144.17113539995626,144.17113539995626,144.18774740002118,144.98971160000656,t,0.8109096999978647,None,01,001,2024-11-18_08h55.44.741,7.0 Delay Discounting,2024.1.5,None,2024-11-18 08h55.58.565069 +0530,
40,55,62,5,4,39,3,145.0140009999741,,144.99199969996698,145.0140009999741,146.00169730000198,146.00169730000198,146.01812140003312,147.26910159992985,t,1.251803299994208,None,01,001,2024-11-18_08h55.44.741,7.0 Delay Discounting,2024.1.5,None,2024-11-18 08h55.58.565069 +0530,
11,30,7,5,5,40,0,147.29267699993216,,147.27219839999452,147.29267699993216,148.28125450003427,148.28125450003427,148.29784789995756,148.94996430003084,l,0.6599892999511212,None,01,001,2024-11-18_08h55.44.741,7.0 Delay Discounting,2024.1.5,None,2024-11-18 08h55.58.565069 +0530,
67,75,119,5,6,41,5,148.97376219998114,,148.95219779992476,148.97376219998114,149.96185890003107,149.96185890003107,149.97849779995158,150.89653589995578,t,0.9249793000053614,None,01,001,2024-11-18_08h55.44.741,7.0 Delay Discounting,2024.1.5,None,2024-11-18 08h55.58.565069 +0530,
11,30,7,6,0,42,0,150.92165030003525,,150.89887349994387,150.92165030003525,151.90874999994412,151.90874999994412,151.92540069995448,152.72852320002858,l,0.8159225000999868,None,01,001,2024-11-18_08h55.44.741,7.0 Delay Discounting,2024.1.5,None,2024-11-18 08h55.58.565069 +0530,
67,75,119,6,1,43,5,152.75302689999808,,152.73082719999366,152.75302689999808,153.73918050003704,153.73918050003704,153.75578080001287,154.37445969996043,l,0.6259066999191418,None,01,001,2024-11-18_08h55.44.741,7.0 Delay Discounting,2024.1.5,None,2024-11-18 08h55.58.565069 +0530,
27,50,21,6,2,44,2,154.40159709996078,,154.3772644000128,154.40159709996078,155.38646900001913,155.38646900001913,155.40312879998237,158.8002810999751,l,3.3960209999931976,None,01,001,2024-11-18_08h55.44.741,7.0 Delay Discounting,2024.1.5,None,2024-11-18 08h55.58.565069 +0530,
40,55,62,6,3,45,3,158.82370579999406,,158.8025609999895,158.82370579999406,159.81261110003106,159.81261110003106,159.82943529996555,161.2795993000036,t,1.4490845000836998,None,01,001,2024-11-18_08h55.44.741,7.0 Delay Discounting,2024.1.5,None,2024-11-18 08h55.58.565069 +0530,
15,35,13,6,4,46,1,161.3028124999255,,161.28284390002955,161.3028124999255,162.29188799997792,162.29188799997792,162.30877669993788,162.91072279994842,l,0.6105750000569969,None,01,001,2024-11-18_08h55.44.741,7.0 Delay Discounting,2024.1.5,None,2024-11-18 08h55.58.565069 +0530,
78,80,162,6,5,47,6,162.93520700000226,,162.91297649999615,162.93520700000226,163.92287849995773,163.92287849995773,163.93936189997476,164.75736239994876,t,0.8171403000596911,None,01,001,2024-11-18_08h55.44.741,7.0 Delay Discounting,2024.1.5,None,2024-11-18 08h55.58.565069 +0530,
49,60,89,6,6,48,4,164.7803031000076,,164.75961359997746,164.7803031000076,165.76989559992217,165.76989559992217,165.78633739997167,167.17053290002514,t,1.3908837999915704,None,01,001,2024-11-18_08h55.44.741,7.0 Delay Discounting,2024.1.5,None,2024-11-18 08h55.58.565069 +0530,
27,50,21,7,0,49,2,167.1987423999235,,167.17423709994182,167.1987423999235,168.18254139996134,168.18254139996134,168.1991057000123,182.4147441999521,l,14.227756300009787,None,01,001,2024-11-18_08h55.44.741,7.0 Delay Discounting,2024.1.5,None,2024-11-18 08h55.58.565069 +0530,
15,35,13,7,1,50,1,182.43764549994376,,182.41697489994112,182.43764549994376,183.42488750000484,183.42488750000484,183.4414711999707,184.99191879993305,l,1.556317099952139,None,01,001,2024-11-18_08h55.44.741,7.0 Delay Discounting,2024.1.5,None,2024-11-18 08h55.58.565069 +0530,
11,30,7,7,2,51,0,185.01647090003826,,184.99413100001402,185.01647090003826,186.00400580000132,186.00400580000132,186.02050670003518,186.6901055999333,l,0.6810976000269875,None,01,001,2024-11-18_08h55.44.741,7.0 Delay Discounting,2024.1.5,None,2024-11-18 08h55.58.565069 +0530,
40,55,62,7,3,52,3,186.71345609996933,,186.69231870002113,186.71345609996933,187.70113880001009,187.70113880001009,187.7178680000361,188.73614669998642,t,1.0231659000273794,None,01,001,2024-11-18_08h55.44.741,7.0 Delay Discounting,2024.1.5,None,2024-11-18 08h55.58.565069 +0530,
78,80,162,7,4,53,6,188.76029539993033,,188.73834219994023,188.76029539993033,189.74792979995254,189.74792979995254,189.7644583999645,193.9274410000071,l,4.16292999999132,None,01,001,2024-11-18_08h55.44.741,7.0 Delay Discounting,2024.1.5,None,2024-11-18 08h55.58.565069 +0530,
67,75,119,7,5,54,5,193.951098099933,,193.9296491999412,193.951098099933,194.93948109995108,194.93948109995108,194.95630650001112,196.62324200000148,t,1.6786519000306726,None,01,001,2024-11-18_08h55.44.741,7.0 Delay Discounting,2024.1.5,None,2024-11-18 08h55.58.565069 +0530,
49,60,89,7,6,55,4,196.64694529992994,,196.6254608000163,196.64694529992994,197.63530470000114,197.63530470000114,197.65187279996462,203.01326839998364,t,5.367808999959379,None,01,001,2024-11-18_08h55.44.741,7.0 Delay Discounting,2024.1.5,None,2024-11-18 08h55.58.565069 +0530,
78,80,162,8,0,56,6,203.03839769994374,,203.01625410001725,203.03839769994374,204.02501480001956,204.02501480001956,204.04150139994454,205.5755542999832,t,1.5413751000305638,None,01,001,2024-11-18_08h55.44.741,7.0 Delay Discounting,2024.1.5,None,2024-11-18 08h55.58.565069 +0530,
11,30,7,8,1,57,0,205.59903979999945,,205.5777620000299,205.59903979999945,206.5873460000148,206.5873460000148,206.60402959992643,207.65616220002994,l,1.0636996000539511,None,01,001,2024-11-18_08h55.44.741,7.0 Delay Discounting,2024.1.5,None,2024-11-18 08h55.58.565069 +0530,
15,35,13,8,2,58,1,207.6797351000132,,207.65847429994028,207.6797351000132,208.6673865999328,208.6673865999328,208.68419379997067,210.48442590003833,l,1.8117485999828205,None,01,001,2024-11-18_08h55.44.741,7.0 Delay Discounting,2024.1.5,None,2024-11-18 08h55.58.565069 +0530,
27,50,21,8,3,59,2,210.5089813999366,,210.4867404999677,210.5089813999366,211.49638759996742,211.49638759996742,211.51287600002252,212.83044359995984,t,1.3277253999840468,None,01,001,2024-11-18_08h55.44.741,7.0 Delay Discounting,2024.1.5,None,2024-11-18 08h55.58.565069 +0530,
40,55,62,8,4,60,3,212.85529939993285,,212.8333712000167,212.85529939993285,213.84251190000214,213.84251190000214,213.85915050003678,215.12672419997398,t,1.2703728000633419,None,01,001,2024-11-18_08h55.44.741,7.0 Delay Discounting,2024.1.5,None,2024-11-18 08h55.58.565069 +0530,
67,75,119,8,5,61,5,215.15123600000516,,215.1290971999988,215.15123600000516,216.13875379995443,216.13875379995443,216.15533129998948,216.85902969993185,t,0.7159060999983922,None,01,001,2024-11-18_08h55.44.741,7.0 Delay Discounting,2024.1.5,None,2024-11-18 08h55.58.565069 +0530,
49,60,89,8,6,62,4,216.8843345999485,,216.86161829996854,216.8843345999485,217.86940680001862,217.86940680001862,217.8861338000279,218.8878795999335,t,1.002520199981518,None,01,001,2024-11-18_08h55.44.741,7.0 Delay Discounting,2024.1.5,None,2024-11-18 08h55.58.565069 +0530,
27,50,21,9,0,63,2,218.91199469997082,,218.89085600001272,218.91199469997082,219.89946190000046,219.89946190000046,219.91620969993528,220.6015862999484,l,0.6895502000115812,None,01,001,2024-11-18_08h55.44.741,7.0 Delay Discounting,2024.1.5,None,2024-11-18 08h55.58.565069 +0530,
49,60,89,9,1,64,4,220.62542970001232,,220.6038539999863,220.62542970001232,221.613261600025,221.613261600025,221.6300638000248,222.29931459994987,t,0.6815506999846548,None,01,001,2024-11-18_08h55.44.741,7.0 Delay Discounting,2024.1.5,None,2024-11-18 08h55.58.565069 +0530,
15,35,13,9,2,65,1,222.32524389994796,,222.3021120999474,222.32524389994796,223.31055840000045,223.31055840000045,223.32735000003595,223.97909889998846,l,0.6600234999787062,None,01,001,2024-11-18_08h55.44.741,7.0 Delay Discounting,2024.1.5,None,2024-11-18 08h55.58.565069 +0530,
78,80,162,9,3,66,6,224.00157449999824,,223.9813245999394,224.00157449999824,224.99131079996005,224.99131079996005,225.00785739999264,226.72634089994244,t,1.716984299942851,None,01,001,2024-11-18_08h55.44.741,7.0 Delay Discounting,2024.1.5,None,2024-11-18 08h55.58.565069 +0530,
40,55,62,9,4,67,3,226.7490620999597,,226.72868780000135,226.7490620999597,227.7368957999861,227.7368957999861,227.75352959998418,228.9878031000262,t,1.242386700003408,None,01,001,2024-11-18_08h55.44.741,7.0 Delay Discounting,2024.1.5,None,2024-11-18 08h55.58.565069 +0530,
11,30,7,9,5,68,0,229.01252109999768,,228.99016179994214,229.01252109999768,229.99990599998273,229.99990599998273,230.01653140003327,230.60204779997002,l,0.5932566999690607,None,01,001,2024-11-18_08h55.44.741,7.0 Delay Discounting,2024.1.5,None,2024-11-18 08h55.58.565069 +0530,
67,75,119,9,6,69,5,230.62659669993445,,230.60423029994126,230.62659669993445,231.61387749994174,231.61387749994174,231.63061270001344,232.69875109998975,t,1.0679098999826238,None,01,001,2024-11-18_08h55.44.741,7.0 Delay Discounting,2024.1.5,None,2024-11-18 08h55.58.565069 +0530,
15,35,13,10,0,70,1,232.72404480003752,,232.7010961000342,232.72404480003752,233.71056939999107,233.71056939999107,233.72723269998096,234.39549999998417,l,0.6694276999915019,None,01,001,2024-11-18_08h55.44.741,7.0 Delay Discounting,2024.1.5,None,2024-11-18 08h55.58.565069 +0530,
67,75,119,10,1,71,5,234.41830699995626,,234.39769200002775,234.41830699995626,235.40794139995705,235.40794139995705,235.4245852000313,236.19271889992524,t,0.7702310000313446,None,01,001,2024-11-18_08h55.44.741,7.0 Delay Discounting,2024.1.5,None,2024-11-18 08h55.58.565069 +0530,
49,60,89,10,2,72,4,236.21805519994814,,236.19503840000834,236.21805519994814,237.2050190999871,237.2050190999871,237.22167859994806,238.1734120999463,t,0.9628771999850869,None,01,001,2024-11-18_08h55.44.741,7.0 Delay Discounting,2024.1.5,None,2024-11-18 08h55.58.565069 +0530,
11,30,7,10,3,73,0,238.1978382000234,,238.17566960002296,238.1978382000234,239.18503389996476,239.18503389996476,239.20177149993833,239.85360839997884,l,0.6603390999371186,None,01,001,2024-11-18_08h55.44.741,7.0 Delay Discounting,2024.1.5,None,2024-11-18 08h55.58.565069 +0530,
78,80,162,10,4,74,6,239.87723759992514,,239.8558197999373,239.87723759992514,240.86575999995694,240.86575999995694,240.8823684999952,242.81554370000958,t,1.9405396999791265,None,01,001,2024-11-18_08h55.44.741,7.0 Delay Discounting,2024.1.5,None,2024-11-18 08h55.58.565069 +0530,
27,50,21,10,5,75,2,242.83936360001098,,242.81779240001924,242.83936360001098,243.82768859993666,243.82768859993666,243.84435699996538,244.72932499996386,t,0.8972977000521496,None,01,001,2024-11-18_08h55.44.741,7.0 Delay Discounting,2024.1.5,None,2024-11-18 08h55.58.565069 +0530,
40,55,62,10,6,76,3,244.75378479994833,,244.7315310999984,244.75378479994833,245.7412777999416,245.7412777999416,245.75874509999994,246.54273210000247,t,0.7913209999678656,None,01,001,2024-11-18_08h55.44.741,7.0 Delay Discounting,2024.1.5,None,2024-11-18 08h55.58.565069 +0530,
11,30,7,11,0,77,0,246.567057200009,,246.54503539996222,246.567057200009,247.55489179992583,247.55489179992583,247.57171779999044,248.00742479995824,l,0.4472702000057325,None,01,001,2024-11-18_08h55.44.741,7.0 Delay Discounting,2024.1.5,None,2024-11-18 08h55.58.565069 +0530,
40,55,62,11,1,78,3,248.03361089993268,,248.0097179999575,248.03361089993268,249.01936569996178,249.01936569996178,249.03607309993822,250.55388339993078,t,1.520799099933356,None,01,001,2024-11-18_08h55.44.741,7.0 Delay Discounting,2024.1.5,None,2024-11-18 08h55.58.565069 +0530,
27,50,21,11,2,79,2,250.5792066999711,,250.55614420003258,250.5792066999711,251.5651615000097,251.5651615000097,251.58189729996957,252.7997879999457,t,1.2194322999566793,None,01,001,2024-11-18_08h55.44.741,7.0 Delay Discounting,2024.1.5,None,2024-11-18 08h55.58.565069 +0530,
78,80,162,11,3,80,6,252.8233704000013,,252.80216269998346,252.8233704000013,253.81157989997882,253.81157989997882,253.8283497999655,254.92922559997533,t,1.1070591000607237,None,01,001,2024-11-18_08h55.44.741,7.0 Delay Discounting,2024.1.5,None,2024-11-18 08h55.58.565069 +0530,
15,35,13,11,4,81,1,254.9586104999762,,254.93260900001042,254.9586104999762,255.9414972999366,255.9414972999366,255.9581928999396,257.0427288999781,l,1.0860322999069467,None,01,001,2024-11-18_08h55.44.741,7.0 Delay Discounting,2024.1.5,None,2024-11-18 08h55.58.565069 +0530,
67,75,119,11,5,82,5,257.06527499994263,,257.04499630001374,257.06527499994263,258.05476400000043,258.05476400000043,258.07148229994345,259.13953279994894,t,1.0778061000164598,None,01,001,2024-11-18_08h55.44.741,7.0 Delay Discounting,2024.1.5,None,2024-11-18 08h55.58.565069 +0530,
49,60,89,11,6,83,4,259.1647538000252,,259.14168949995656,259.1647538000252,260.1513996999711,260.1513996999711,260.16801519994624,261.2192123000277,t,1.0529274999862537,None,01,001,2024-11-18_08h55.44.741,7.0 Delay Discounting,2024.1.5,None,2024-11-18 08h55.58.565069 +0530,
67,75,119,12,0,84,5,261.2414774999488,,261.2218713000184,261.2414774999488,262.23142850003205,262.23142850003205,262.24801510002,264.48072320001666,t,2.2396128000691533,None,01,001,2024-11-18_08h55.44.741,7.0 Delay Discounting,2024.1.5,None,2024-11-18 08h55.58.565069 +0530,
11,30,7,12,1,85,0,264.50533059996087,,264.4829994000029,264.50533059996087,265.49280240002554,265.49280240002554,265.5095426000189,267.0266464999877,l,1.5174968999344856,None,01,001,2024-11-18_08h55.44.741,7.0 Delay Discounting,2024.1.5,None,2024-11-18 08h55.58.565069 +0530,
40,55,62,12,2,86,3,267.0502842999995,,267.0290021999972,267.0502842999995,268.03882130002603,268.03882130002603,268.0553432999877,268.80692100001033,t,0.7544710000511259,None,01,001,2024-11-18_08h55.44.741,7.0 Delay Discounting,2024.1.5,None,2024-11-18 08h55.58.565069 +0530,
27,50,21,12,3,87,2,268.830775899929,,268.80907509999815,268.830775899929,269.81925619998947,269.81925619998947,269.8358665999258,270.7038410999812,t,0.8774823000421748,None,01,001,2024-11-18_08h55.44.741,7.0 Delay Discounting,2024.1.5,None,2024-11-18 08h55.58.565069 +0530,
49,60,89,12,4,88,4,270.727408100036,,270.70608129992615,270.727408100036,271.7161866999231,271.7161866999231,271.73279839998577,272.883989199996,t,1.152306400006637,None,01,001,2024-11-18_08h55.44.741,7.0 Delay Discounting,2024.1.5,None,2024-11-18 08h55.58.565069 +0530,
78,80,162,12,5,89,6,272.9069148999406,,272.886567599955,272.9069148999406,273.89603249996435,273.89603249996435,273.91264380002394,274.9637267999351,t,1.0621291000861675,None,01,001,2024-11-18_08h55.44.741,7.0 Delay Discounting,2024.1.5,None,2024-11-18 08h55.58.565069 +0530,
15,35,13,12,6,90,1,274.9897329999367,,274.96674709999934,274.9897329999367,275.9759387000231,275.9759387000231,275.99265409994405,276.56211900000926,l,0.5803188999416307,None,01,001,2024-11-18_08h55.44.741,7.0 Delay Discounting,2024.1.5,None,2024-11-18 08h55.58.565069 +0530,
15,35,13,13,0,91,1,276.5748900999315,,276.5643120999448,276.5748900999315,277.5733551000012,277.5733551000012,277.5900928999763,278.3083955999464,l,0.7185122000519186,None,01,001,2024-11-18_08h55.44.741,7.0 Delay Discounting,2024.1.5,None,2024-11-18 08h55.58.565069 +0530,
11,30,7,13,1,92,0,278.33105419995263,,278.3105617000256,278.33105419995263,279.32064509997144,279.32064509997144,279.3372281999327,280.10605409997515,l,0.7668324999976903,None,01,001,2024-11-18_08h55.44.741,7.0 Delay Discounting,2024.1.5,None,2024-11-18 08h55.58.565069 +0530,
78,80,162,13,2,93,6,280.1297803999623,,280.1089721999597,280.1297803999623,281.11766290001106,281.11766290001106,281.13426950003486,282.03576689993497,t,0.9039603999117389,None,01,001,2024-11-18_08h55.44.741,7.0 Delay Discounting,2024.1.5,None,2024-11-18 08h55.58.565069 +0530,
27,50,21,13,3,94,2,282.061265300028,,282.03804200002924,282.061265300028,283.0478737000376,283.0478737000376,283.06455909996293,284.13253219996113,t,1.0795256999554113,None,01,001,2024-11-18_08h55.44.741,7.0 Delay Discounting,2024.1.5,None,2024-11-18 08h55.58.565069 +0530,
67,75,119,13,4,95,5,284.1562709999271,,284.13472510001156,284.1562709999271,285.1444348000223,285.1444348000223,285.16130509995855,285.76356410002336,t,0.6136937999399379,None,01,001,2024-11-18_08h55.44.741,7.0 Delay Discounting,2024.1.5,None,2024-11-18 08h55.58.565069 +0530,
40,55,62,13,5,96,3,285.78693099995144,,285.76573690003715,285.78693099995144,286.77537779998966,286.77537779998966,286.79193760000635,287.52700729994103,t,0.7376638000132516,None,01,001,2024-11-18_08h55.44.741,7.0 Delay Discounting,2024.1.5,None,2024-11-18 08h55.58.565069 +0530,
49,60,89,13,6,97,4,287.54979489999823,,287.5292083999375,287.54979489999823,288.539224499953,288.539224499953,288.55574859993067,289.32407059997786,t,0.7679235999239609,None,01,001,2024-11-18_08h55.44.741,7.0 Delay Discounting,2024.1.5,None,2024-11-18 08h55.58.565069 +0530,
