stair.thisTrialN,stair.stepSize,stair.intensity,thisRow.t,notes,trial.started,fixation.started,grating.started,key_resp.started,fixation.stopped,grating.stopped,trial.stopped,corrAns,tilt,key_resp.corr,stair.response,key_resp.rt,participant,session,date,expName,psychopyVersion,frameRate,expStart,
0,2,10.0,0.11569129998679273,,0.023795099987182766,0.11569129998679273,0.6221274000126868,0.6221274000126868,0.6497729000111576,0.949025799985975,4.710693300003186,right,10.0,1,1,4.073952000006102,482189,001,2024-09-09_10h56.18.481,adaptive_staircase,2024.1.5,None,2024-09-09 10h56.24.975969 +0530,
1,2,8.0,4.728173399984371,,4.710965999984182,4.728173399984371,5.259667600010289,5.259667600010289,5.259667600010289,5.592024599987781,6.009068599989405,right,8.0,1,1,0.7328222999931313,482189,001,2024-09-09_10h56.18.481,adaptive_staircase,2024.1.5,None,2024-09-09 10h56.24.975969 +0530,
2,2,6.0,6.024806900008116,,6.009465999988606,6.024806900008116,6.5572661999904085,6.5572661999904085,6.5572661999904085,6.890316900011385,7.237638499995228,left,-6.0,1,1,0.6556268999993335,482189,001,2024-09-09_10h56.18.481,adaptive_staircase,2024.1.5,None,2024-09-09 10h56.24.975969 +0530,
3,2,4.0,7.25637459999416,,7.237922200001776,7.25637459999416,7.755314200010616,7.755314200010616,7.7887693000084255,8.087951699999394,8.536507399985567,left,-4.0,1,1,0.7658612000232097,482189,001,2024-09-09_10h56.18.481,adaptive_staircase,2024.1.5,None,2024-09-09 10h56.24.975969 +0530,
4,2,2.0,8.555633999989368,,8.53690999999526,8.555633999989368,9.06980779999867,9.06980779999867,9.104161499999464,9.402475000009872,9.950166199996602,right,2.0,1,1,0.8596690999984276,482189,001,2024-09-09_10h56.18.481,adaptive_staircase,2024.1.5,None,2024-09-09 10h56.24.975969 +0530,
5,2,1.0,9.968235700012883,,9.950549500004854,9.968235700012883,10.467772100004368,10.467772100004368,10.501046499994118,10.800413399992976,11.181273399997735,right,1.0,1,1,0.6838481999875512,482189,001,2024-09-09_10h56.18.481,adaptive_staircase,2024.1.5,None,2024-09-09 10h56.24.975969 +0530,
6,2,1.0,11.20028300001286,,11.181643799995072,11.20028300001286,11.699113300011959,11.699113300011959,11.732534999988275,11.998384600010468,12.547787099989364,right,1.0,1,1,0.8368236999958754,482189,001,2024-09-09_10h56.18.481,adaptive_staircase,2024.1.5,None,2024-09-09 10h56.24.975969 +0530,
7,1,1.0,12.564111999992747,,12.548337999993237,12.564111999992747,13.096710799989523,13.096710799989523,13.096710799989523,13.429509000008693,13.809639299986884,left,-1.0,0,0,0.6904823000077158,482189,001,2024-09-09_10h56.18.481,adaptive_staircase,2024.1.5,None,2024-09-09 10h56.24.975969 +0530,
8,1,2.0,13.828687600005651,,13.80995319999056,13.828687600005651,14.34551489999285,14.34551489999285,14.34551489999285,14.67823709998629,15.059933200012892,right,2.0,1,1,0.7080819999973755,482189,001,2024-09-09_10h56.18.481,adaptive_staircase,2024.1.5,None,2024-09-09 10h56.24.975969 +0530,
9,1,2.0,15.076699400000507,,15.06017489999067,15.076699400000507,15.575309200008633,15.575309200008633,15.594018700008746,15.89224300000933,16.64025130000664,right,2.0,1,1,1.0327536999830045,482189,001,2024-09-09_10h56.18.481,adaptive_staircase,2024.1.5,None,2024-09-09 10h56.24.975969 +0530,
10,1,2.0,16.65767680000863,,16.64063169999281,16.65767680000863,17.156924899987644,17.156924899987644,17.190199700009543,17.489530699996976,18.136752999998862,right,2.0,1,1,0.9524441999965347,482189,001,2024-09-09_10h56.18.481,adaptive_staircase,2024.1.5,None,2024-09-09 10h56.24.975969 +0530,
11,1,1.0,18.15546209999593,,18.13700690001133,18.15546209999593,18.65525539999362,18.65525539999362,18.688280600006692,18.97085290000541,19.55096200000844,left,-1.0,1,1,0.8722473999951035,482189,001,2024-09-09_10h56.18.481,adaptive_staircase,2024.1.5,None,2024-09-09 10h56.24.975969 +0530,
12,1,1.0,19.570805800001835,,19.551317500008736,19.570805800001835,20.069431699987035,20.069431699987035,20.10218590000295,20.401593199989293,20.75254610000411,right,1.0,1,1,0.6712326000269968,482189,001,2024-09-09_10h56.18.481,adaptive_staircase,2024.1.5,None,2024-09-09 10h56.24.975969 +0530,
13,1,1.0,20.767751700012013,,20.752905800007284,20.767751700012013,21.300266600010218,21.300266600010218,21.300266600010218,21.60083089998807,22.39606569998432,left,-1.0,1,1,1.0704788999864832,482189,001,2024-09-09_10h56.18.481,adaptive_staircase,2024.1.5,None,2024-09-09 10h56.24.975969 +0530,
14,0.5,1.0,22.41511649999302,,22.396468399994774,22.41511649999302,22.915670099988347,22.915670099988347,22.947863500012318,23.24717670000973,23.728780000004917,left,-1.0,0,0,0.7823415000166278,482189,001,2024-09-09_10h56.18.481,adaptive_staircase,2024.1.5,None,2024-09-09 10h56.24.975969 +0530,
15,0.5,1.5,23.746814499987522,,23.729166900011478,23.746814499987522,24.24555359999067,24.24555359999067,24.278832699987106,24.578259700007038,25.358163600001717,right,1.5,1,1,1.0793468999909237,482189,001,2024-09-09_10h56.18.481,adaptive_staircase,2024.1.5,None,2024-09-09 10h56.24.975969 +0530,
16,0.5,1.5,25.377012399985688,,25.35855730000185,25.377012399985688,25.876799399993615,25.876799399993615,25.909414499998093,26.20911540000816,26.68970290001016,right,1.5,1,1,0.7825131000136025,482189,001,2024-09-09_10h56.18.481,adaptive_staircase,2024.1.5,None,2024-09-09 10h56.24.975969 +0530,
17,0.5,1.5,26.70832380000502,,26.6900794999965,26.70832380000502,27.20755389999249,27.20755389999249,27.240749899996445,27.540162799996324,28.321758900012355,right,1.5,1,1,1.081261799990898,482189,001,2024-09-09_10h56.18.481,adaptive_staircase,2024.1.5,None,2024-09-09 10h56.24.975969 +0530,
18,0.5,1.0,28.338919900008477,,28.322326599998632,28.338919900008477,28.838265900005354,28.838265900005354,28.871544900001027,29.171171099995263,29.6190065999981,right,1.0,1,1,0.7690747000160627,482189,001,2024-09-09_10h56.18.481,adaptive_staircase,2024.1.5,None,2024-09-09 10h56.24.975969 +0530,
19,0.5,1.0,29.637014600011753,,29.619546200003242,29.637014600011753,30.13606190000428,30.13606190000428,30.169461899989983,30.469019100011792,30.985141699988162,right,1.0,1,1,0.8339099000149872,482189,001,2024-09-09_10h56.18.481,adaptive_staircase,2024.1.5,None,2024-09-09 10h56.24.975969 +0530,
20,0.5,1.0,31.001302899996517,,30.985600099986186,31.001302899996517,31.534238899999764,31.534238899999764,31.534238899999764,31.866513399989344,32.57954589999281,right,1.0,1,1,1.0192508999898564,482189,001,2024-09-09_10h56.18.481,adaptive_staircase,2024.1.5,None,2024-09-09 10h56.24.975969 +0530,
21,0.5,1.0,32.598807000002125,,32.57993469998473,32.598807000002125,33.09832029999234,33.09832029999234,33.13111069999286,33.43115230000694,34.178450600011274,right,1.0,1,1,1.055136400012998,482189,001,2024-09-09_10h56.18.481,adaptive_staircase,2024.1.5,None,2024-09-09 10h56.24.975969 +0530,
22,0.5,1.0,34.19612730000517,,34.17875049999566,34.19612730000517,34.69561840000097,34.69561840000097,34.72871130000567,35.028162300004624,35.56247460001032,right,1.0,0,0,0.8361411999794655,482189,001,2024-09-09_10h56.18.481,adaptive_staircase,2024.1.5,None,2024-09-09 10h56.24.975969 +0530,
23,0.5,1.5,35.59497589999228,,35.56288380001206,35.59497589999228,36.09327640000265,36.09327640000265,36.1264499000099,36.4260448999994,36.97445519999019,left,-1.5,1,1,0.8477058999997098,482189,001,2024-09-09_10h56.18.481,adaptive_staircase,2024.1.5,None,2024-09-09 10h56.24.975969 +0530,
24,0.5,1.5,36.9929628999962,,36.974838099995395,36.9929628999962,37.49167379998835,37.49167379998835,37.52439780000714,37.824175399990054,38.40644069999689,left,-1.5,1,1,0.9051941999932751,482189,001,2024-09-09_10h56.18.481,adaptive_staircase,2024.1.5,None,2024-09-09 10h56.24.975969 +0530,
25,0.5,1.5,38.42284819998895,,38.40683649998391,38.42284819998895,38.923253399989335,38.923253399989335,38.95435039998847,39.27139629999874,39.7196544999897,right,1.5,1,1,0.7770989000273403,482189,001,2024-09-09_10h56.18.481,adaptive_staircase,2024.1.5,None,2024-09-09 10h56.24.975969 +0530,
26,0.5,1.0,39.737586400005966,,39.72007929999381,39.737586400005966,40.236605199985206,40.236605199985206,40.27006889999029,40.56939190000412,41.151449400000274,left,-1.0,0,0,0.9029073999845423,482189,001,2024-09-09_10h56.18.481,adaptive_staircase,2024.1.5,None,2024-09-09 10h56.24.975969 +0530,
27,0.5,1.5,41.168265099986456,,41.15182460000506,41.168265099986456,41.66849829998682,41.66849829998682,41.70082219998585,42.00047940001241,42.61563149999711,left,-1.5,0,0,0.9413122000114527,482189,001,2024-09-09_10h56.18.481,adaptive_staircase,2024.1.5,None,2024-09-09 10h56.24.975969 +0530,
28,0.5,2.0,42.63267990000895,,42.61603800000739,42.63267990000895,43.13194890000159,43.13194890000159,43.16529080001055,43.464956799987704,44.046159399993485,left,-2.0,0,0,0.9063448999950197,482189,001,2024-09-09_10h56.18.481,adaptive_staircase,2024.1.5,None,2024-09-09 10h56.24.975969 +0530,
29,0.5,2.5,44.06403229999705,,44.04646899999352,44.06403229999705,44.563143899984425,44.563143899984425,44.59686079999665,44.89567329999409,45.34290119999787,right,2.5,1,1,0.7503510999958962,482189,001,2024-09-09_10h56.18.481,adaptive_staircase,2024.1.5,None,2024-09-09 10h56.24.975969 +0530,
30,0.5,2.5,45.36166950000916,,45.343243499984965,45.36166950000916,45.86096120000002,45.86096120000002,45.89421199998469,46.19375959999161,46.74360759998672,right,2.5,1,1,0.8756837999972049,482189,001,2024-09-09_10h56.18.481,adaptive_staircase,2024.1.5,None,2024-09-09 10h56.24.975969 +0530,
31,0.5,2.5,46.75971290000598,,46.74401610001223,46.75971290000598,47.292745399987325,47.292745399987325,47.292745399987325,47.62466349999886,48.24065719998907,left,-2.5,1,1,0.912264700018568,482189,001,2024-09-09_10h56.18.481,adaptive_staircase,2024.1.5,None,2024-09-09 10h56.24.975969 +0530,
32,0.5,2.0,48.25705640000524,,48.24108969999361,48.25705640000524,48.774462300003506,48.774462300003506,48.774462300003506,49.07343069999479,50.717879300005734,left,-2.0,1,1,1.9171032999875024,482189,001,2024-09-09_10h56.18.481,adaptive_staircase,2024.1.5,None,2024-09-09 10h56.24.975969 +0530,
33,0.5,2.0,50.73674279998522,,50.71828490000917,50.73674279998522,51.2358324000088,51.2358324000088,51.26908430000185,51.56879509999999,52.184391799994046,right,2.0,1,1,0.935689200006891,482189,001,2024-09-09_10h56.18.481,adaptive_staircase,2024.1.5,None,2024-09-09 10h56.24.975969 +0530,
34,0.5,2.0,52.20166289998451,,52.18479699999443,52.20166289998451,52.73319969998556,52.73319969998556,52.73319969998556,53.066347499989206,53.581349099986255,right,2.0,1,1,0.8398070999828633,482189,001,2024-09-09_10h56.18.481,adaptive_staircase,2024.1.5,None,2024-09-09 10h56.24.975969 +0530,
35,0.5,1.5,53.59847880000598,,53.58162439998705,53.59847880000598,54.09778899999219,54.09778899999219,54.13086090001161,54.43052860000171,55.010264000011375,right,1.5,1,1,0.8865784000081476,482189,001,2024-09-09_10h56.18.481,adaptive_staircase,2024.1.5,None,2024-09-09 10h56.24.975969 +0530,
36,0.5,1.5,55.02957849999075,,55.01055050001014,55.02957849999075,55.53136170000653,55.53136170000653,55.56220630000462,55.861438299994916,56.60990630000015,right,1.5,1,1,1.0497875000000931,482189,001,2024-09-09_10h56.18.481,adaptive_staircase,2024.1.5,None,2024-09-09 10h56.24.975969 +0530,
37,0.5,1.5,56.627072100003716,,56.610287199990125,56.627072100003716,57.126389599987306,57.126389599987306,57.15954769999371,57.45881039998494,57.97396289999597,left,-1.5,1,1,0.8357007000013255,482189,001,2024-09-09_10h56.18.481,adaptive_staircase,2024.1.5,None,2024-09-09 10h56.24.975969 +0530,
38,0.5,1.0,57.99111040000571,,57.974283699993975,57.99111040000571,58.49099190000561,58.49099190000561,58.52422469999874,58.82351379998727,59.43760929998825,right,1.0,1,1,0.9340035999775864,482189,001,2024-09-09_10h56.18.481,adaptive_staircase,2024.1.5,None,2024-09-09 10h56.24.975969 +0530,
39,0.5,1.0,59.45568099999218,,59.43798260000767,59.45568099999218,59.955060500011314,59.955060500011314,59.98827549998532,60.28810850001173,60.868860799993854,left,-1.0,1,1,0.9041843000159133,482189,001,2024-09-09_10h56.18.481,adaptive_staircase,2024.1.5,None,2024-09-09 10h56.24.975969 +0530,
40,0.5,1.0,60.88684900000226,,60.86915710000903,60.88684900000226,61.386524800007464,61.386524800007464,61.41969720000634,61.718671899987385,62.103873999993084,right,1.0,0,0,0.6848961999930907,482189,001,2024-09-09_10h56.18.481,adaptive_staircase,2024.1.5,None,2024-09-09 10h56.24.975969 +0530,
41,0.5,1.5,62.118097300000954,,62.104481799993664,62.118097300000954,62.65102699998533,62.65102699998533,62.65102699998533,62.983192399988184,63.232070800004294,left,-1.5,1,1,0.5573675000050571,482189,001,2024-09-09_10h56.18.481,adaptive_staircase,2024.1.5,None,2024-09-09 10h56.24.975969 +0530,
42,0.5,1.5,63.24968629999785,,63.23233130000881,63.24968629999785,63.74981750000734,63.74981750000734,63.782194600004004,64.08156650001183,64.46306680000271,left,-1.5,1,1,0.6973790999909397,482189,001,2024-09-09_10h56.18.481,adaptive_staircase,2024.1.5,None,2024-09-09 10h56.24.975969 +0530,
43,0.5,1.5,64.48103389999596,,64.46331270001247,64.48103389999596,64.98030100000324,64.98030100000324,65.01358199998504,65.3137274000037,65.66015119999065,left,-1.5,0,0,0.6527414000011049,482189,001,2024-09-09_10h56.18.481,adaptive_staircase,2024.1.5,None,2024-09-09 10h56.24.975969 +0530,
44,0.5,2.0,65.67903639998985,,65.66044800000964,65.67903639998985,66.17825599998469,66.17825599998469,66.21177840000018,66.51124500000151,66.926999599993,right,2.0,1,1,0.7374861999996938,482189,001,2024-09-09_10h56.18.481,adaptive_staircase,2024.1.5,None,2024-09-09 10h56.24.975969 +0530,
45,0.5,2.0,66.94375010000658,,66.92739209998399,66.94375010000658,67.44293889999972,67.44293889999972,67.4767179999908,67.77565120000509,68.29279489998589,right,2.0,0,0,0.8339914999960456,482189,001,2024-09-09_10h56.18.481,adaptive_staircase,2024.1.5,None,2024-09-09 10h56.24.975969 +0530,
46,0.5,2.5,68.30884009998408,,68.29307139999582,68.30884009998408,68.84081490000244,68.84081490000244,68.84081490000244,69.17367670001113,69.49076469999272,right,2.5,1,1,0.6423807000101078,482189,001,2024-09-09_10h56.18.481,adaptive_staircase,2024.1.5,None,2024-09-09 10h56.24.975969 +0530,
47,0.5,2.5,69.50619419998839,,69.4911737999937,69.50619419998839,70.03919640000095,70.03919640000095,70.03919640000095,70.37169430000358,70.6862237000023,right,2.5,1,1,0.6291873999871314,482189,001,2024-09-09_10h56.18.481,adaptive_staircase,2024.1.5,None,2024-09-09 10h56.24.975969 +0530,
48,0.5,2.5,70.70428239999455,,70.68663360000937,70.70428239999455,71.2036822999944,71.2036822999944,71.23733569998876,71.5363451000012,72.28429449998657,right,2.5,1,1,1.066808100003982,482189,001,2024-09-09_10h56.18.481,adaptive_staircase,2024.1.5,None,2024-09-09 10h56.24.975969 +0530,
49,0.5,2.0,72.30174639998586,,72.28472049999982,72.30174639998586,72.8010360999906,72.8010360999906,72.83463639998809,73.13390909999725,73.55128960000002,right,2.0,1,1,0.7148845999909099,482189,001,2024-09-09_10h56.18.481,adaptive_staircase,2024.1.5,None,2024-09-09 10h56.24.975969 +0530,
50,0.5,2.0,73.56653790001292,,73.55181080001057,73.56653790001292,74.09907910000766,74.09907910000766,74.09907910000766,74.4320330999908,74.78230230000918,left,-2.0,1,1,0.6468591000011656,482189,001,2024-09-09_10h56.18.481,adaptive_staircase,2024.1.5,None,2024-09-09 10h56.24.975969 +0530,
51,0.5,2.0,74.79762359999586,,74.78268139998545,74.79762359999586,75.33142709999811,75.33142709999811,75.33142709999811,75.66302050001104,76.07921830000123,left,-2.0,0,0,0.7129122000187635,482189,001,2024-09-09_10h56.18.481,adaptive_staircase,2024.1.5,None,2024-09-09 10h56.24.975969 +0530,
52,0.5,2.5,76.09562489998643,,76.07956409998587,76.09562489998643,76.62917820000439,76.62917820000439,76.62917820000439,76.96198349999031,77.24287449999247,right,2.5,1,1,0.5790188999962993,482189,001,2024-09-09_10h56.18.481,adaptive_staircase,2024.1.5,None,2024-09-09 10h56.24.975969 +0530,
53,0.5,2.5,77.26044169999659,,77.24318869999843,77.26044169999659,77.75966509999125,77.75966509999125,77.79300460001105,78.09279369999422,78.30860660001053,left,-2.5,1,1,0.5338356999855023,482189,001,2024-09-09_10h56.18.481,adaptive_staircase,2024.1.5,None,2024-09-09 10h56.24.975969 +0530,
54,0.5,2.5,78.3255530000024,,78.30886479999754,78.3255530000024,78.84141900000395,78.84141900000395,78.84141900000395,79.17440079999506,79.45462129998486,right,2.5,1,1,0.5914533999748528,482189,001,2024-09-09_10h56.18.481,adaptive_staircase,2024.1.5,None,2024-09-09 10h56.24.975969 +0530,
55,0.5,2.0,79.47366220000549,,79.45500990000437,79.47366220000549,79.9731172999891,79.9731172999891,80.00666700000875,80.30564099998446,80.82015119999414,left,-2.0,1,1,0.8141973000019789,482189,001,2024-09-09_10h56.18.481,adaptive_staircase,2024.1.5,None,2024-09-09 10h56.24.975969 +0530,
56,0.5,2.0,80.83806909999112,,80.82051389999106,80.83806909999112,81.33745900000213,81.33745900000213,81.37164219998522,81.67013579999912,82.18460159999086,right,2.0,1,1,0.8143803999992087,482189,001,2024-09-09_10h56.18.481,adaptive_staircase,2024.1.5,None,2024-09-09 10h56.24.975969 +0530,
57,0.5,2.0,82.20268640000722,,82.18484490000992,82.20268640000722,82.70239140000194,82.70239140000194,82.75101899998845,83.019461399992,83.39459340000758,right,2.0,1,1,0.6798402999993414,482189,001,2024-09-09_10h56.18.481,adaptive_staircase,2024.1.5,None,2024-09-09 10h56.24.975969 +0530,
58,0.5,1.5,83.41620919998968,,83.39474749998772,83.41620919998968,83.91663379999227,83.91663379999227,83.95008360000793,84.24924599999213,84.99826520000352,right,1.5,1,1,1.0764031000144314,482189,001,2024-09-09_10h56.18.481,adaptive_staircase,2024.1.5,None,2024-09-09 10h56.24.975969 +0530,
59,0.5,1.5,85.01485680000042,,84.99865769999451,85.01485680000042,85.51422479999019,85.51422479999019,85.54787670000223,85.84740309999324,86.36022490001051,left,-1.5,1,1,0.8130517000099644,482189,001,2024-09-09_10h56.18.481,adaptive_staircase,2024.1.5,None,2024-09-09 10h56.24.975969 +0530,
60,0.5,1.5,86.37962669998524,,86.36052059999201,86.37962669998524,86.88010939999367,86.88010939999367,86.91178279998712,87.21127470000647,87.52813530000276,left,-1.5,0,0,0.6332676000020001,482189,001,2024-09-09_10h56.18.481,adaptive_staircase,2024.1.5,None,2024-09-09 10h56.24.975969 +0530,
61,0.5,2.0,87.54446330000064,,87.52865150000434,87.54446330000064,88.0766556999879,88.0766556999879,88.0766556999879,88.40960660000565,88.95698310001171,right,2.0,1,1,0.8560050000087358,482189,001,2024-09-09_10h56.18.481,adaptive_staircase,2024.1.5,None,2024-09-09 10h56.24.975969 +0530,
62,0.5,2.0,88.97503179998603,,88.95738229999552,88.97503179998603,89.47446160000982,89.47446160000982,89.507904099999,89.80705169998691,90.42697480000788,right,2.0,1,1,0.9373085999977775,482189,001,2024-09-09_10h56.18.481,adaptive_staircase,2024.1.5,None,2024-09-09 10h56.24.975969 +0530,
63,0.5,2.0,90.4391415999853,,90.42724779999116,90.4391415999853,90.9722683999862,90.9722683999862,90.9722683999862,91.30466170000727,92.08476999998675,left,-2.0,1,1,1.0788143999816384,482189,001,2024-09-09_10h56.18.481,adaptive_staircase,2024.1.5,None,2024-09-09 10h56.24.975969 +0530,
64,0.5,1.5,92.10351350001292,,92.08502950001275,92.10351350001292,92.60294770001201,92.60294770001201,92.6359034999914,92.93563180000638,93.68168420001166,left,-1.5,1,1,1.0623937999771442,482189,001,2024-09-09_10h56.18.481,adaptive_staircase,2024.1.5,None,2024-09-09 10h56.24.975969 +0530,
65,0.5,1.5,93.70097189999069,,93.68194209999638,93.70097189999069,94.20013899999321,94.20013899999321,94.23376430000644,94.53274940000847,94.9147934000066,right,1.5,1,1,0.6923677999875508,482189,001,2024-09-09_10h56.18.481,adaptive_staircase,2024.1.5,None,2024-09-09 10h56.24.975969 +0530,
66,0.5,1.5,94.93211180000799,,94.91517250001198,94.93211180000799,95.4315849999839,95.4315849999839,95.46471999998903,95.76399780000793,96.54615380000905,right,1.5,1,1,1.1054436000122223,482189,001,2024-09-09_10h56.18.481,adaptive_staircase,2024.1.5,None,2024-09-09 10h56.24.975969 +0530,
67,0.5,1.0,96.56296750000911,,96.54640140000265,96.56296750000911,97.06233590000193,97.06233590000193,97.095779700001,97.39604110000073,98.17403180000838,left,-1.0,1,1,1.0917060000065248,482189,001,2024-09-09_10h56.18.481,adaptive_staircase,2024.1.5,None,2024-09-09 10h56.24.975969 +0530,
68,0.5,1.0,98.19378639999195,,98.17426890000934,98.19378639999195,98.69282749999547,98.69282749999547,98.72644229998696,99.02576600000612,99.64043880000827,right,1.0,1,1,0.9363349000050221,482189,001,2024-09-09_10h56.18.481,adaptive_staircase,2024.1.5,None,2024-09-09 10h56.24.975969 +0530,
69,0.5,1.0,99.65829530000337,,99.64069679999375,99.65829530000337,100.15715720001026,100.15715720001026,100.19220640001004,100.45682600000873,101.75583599999663,right,1.0,0,0,1.5903877999808174,482189,001,2024-09-09_10h56.18.481,adaptive_staircase,2024.1.5,None,2024-09-09 10h56.24.975969 +0530,
70,0.5,1.5,101.7714491999941,,101.75627829998848,101.7714491999941,102.30364530000952,102.30364530000952,102.30364530000952,102.63639910001075,104.1505261999846,right,1.5,1,1,1.8382317000068724,482189,001,2024-09-09_10h56.18.481,adaptive_staircase,2024.1.5,None,2024-09-09 10h56.24.975969 +0530,
71,0.5,1.5,104.16742039998644,,104.15077290000045,104.16742039998644,104.66698879998876,104.66698879998876,104.69981089999783,104.99942529998953,106.24740190000739,right,1.5,0,0,1.5446863999823108,482189,001,2024-09-09_10h56.18.481,adaptive_staircase,2024.1.5,None,2024-09-09 10h56.24.975969 +0530,
72,0.5,2.0,106.26417979999678,,106.24772419998772,106.26417979999678,106.78091840000707,106.78091840000707,106.78091840000707,107.1130264000094,107.86337949999142,left,-2.0,1,1,1.066579800011823,482189,001,2024-09-09_10h56.18.481,adaptive_staircase,2024.1.5,None,2024-09-09 10h56.24.975969 +0530,
73,0.5,2.0,107.87839019999956,,107.86365049998858,107.87839019999956,108.41051929999958,108.41051929999958,108.41051929999958,108.74372009999934,109.42342549999012,right,2.0,1,1,0.9784717000147793,482189,001,2024-09-09_10h56.18.481,adaptive_staircase,2024.1.5,None,2024-09-09 10h56.24.975969 +0530,
74,0.5,2.0,109.44274130000849,,109.42379480000818,109.44274130000849,109.94168069999432,109.94168069999432,109.9748957999982,110.27443449999555,111.12342429999262,right,2.0,1,1,1.1461041000147816,482189,001,2024-09-09_10h56.18.481,adaptive_staircase,2024.1.5,None,2024-09-09 10h56.24.975969 +0530,
75,0.5,1.5,111.13947069999995,,111.12384949999978,111.13947069999995,111.6388592000003,111.6388592000003,111.67258230000152,111.97149970001192,113.07601059999433,right,1.5,0,0,1.4348827000067104,482189,001,2024-09-09_10h56.18.481,adaptive_staircase,2024.1.5,None,2024-09-09 10h56.24.975969 +0530,
76,0.5,2.0,113.08628899999894,,113.07616830000188,113.08628899999894,113.59267409998574,113.59267409998574,113.6257942999946,113.92737349998788,114.50728580000577,right,2.0,1,1,0.8939725999953225,482189,001,2024-09-09_10h56.18.481,adaptive_staircase,2024.1.5,None,2024-09-09 10h56.24.975969 +0530,
77,0.5,2.0,114.51822480000556,,114.50745750000351,114.51822480000556,115.05039709998528,115.05039709998528,115.05039709998528,115.36648769999738,115.64257050000015,right,2.0,1,1,0.579868600005284,482189,001,2024-09-09_10h56.18.481,adaptive_staircase,2024.1.5,None,2024-09-09 10h56.24.975969 +0530,
78,0.5,2.0,115.66468779998831,,115.64271899999585,115.66468779998831,116.164804,116.164804,116.19818909998867,116.49775629999931,117.17866979999235,right,2.0,1,1,0.9968214999826159,482189,001,2024-09-09_10h56.18.481,adaptive_staircase,2024.1.5,None,2024-09-09 10h56.24.975969 +0530,
79,0.5,1.5,117.1978625000047,,117.17905790000805,117.1978625000047,117.69632439999259,117.69632439999259,117.72939759999281,118.02853660000255,118.77095599999302,right,1.5,1,1,1.067148800007999,482189,001,2024-09-09_10h56.18.481,adaptive_staircase,2024.1.5,None,2024-09-09 10h56.24.975969 +0530,
80,0.5,1.5,118.79289479998988,,118.77112049999414,118.79289479998988,119.29369339998811,119.29369339998811,119.32652149998466,119.62624929999583,120.07966109999688,left,-1.5,1,1,0.7690015000116546,482189,001,2024-09-09_10h56.18.481,adaptive_staircase,2024.1.5,None,2024-09-09 10h56.24.975969 +0530,
81,0.5,1.5,120.10826440001256,,120.07993099998566,120.10826440001256,120.60774750000564,120.60774750000564,120.64101299998583,120.9403045999934,121.62478740001097,left,-1.5,1,1,1.0039013999921735,482189,001,2024-09-09_10h56.18.481,adaptive_staircase,2024.1.5,None,2024-09-09 10h56.24.975969 +0530,
82,0.5,1.0,121.63954529998591,,121.62545319998753,121.63954529998591,122.17194739999832,122.17194739999832,122.17194739999832,122.50461010000436,123.29003559998819,left,-1.0,1,1,1.0955622000037692,482189,001,2024-09-09_10h56.18.481,adaptive_staircase,2024.1.5,None,2024-09-09 10h56.24.975969 +0530,
83,0.5,1.0,123.30224789999193,,123.2904428000038,123.30224789999193,123.81969659999595,123.81969659999595,123.81969659999595,124.15263860000414,125.46459690001211,left,-1.0,1,1,1.6193273999961093,482189,001,2024-09-09_10h56.18.481,adaptive_staircase,2024.1.5,None,2024-09-09 10h56.24.975969 +0530,
84,0.5,1.0,125.48347440001089,,125.46486790000927,125.48347440001089,125.98253909999039,125.98253909999039,126.01645329999155,126.31674459998612,126.69681180000771,right,1.0,1,1,0.7049569999799132,482189,001,2024-09-09_10h56.18.481,adaptive_staircase,2024.1.5,None,2024-09-09 10h56.24.975969 +0530,
85,0.5,1.0,126.71471299999394,,126.69708079998964,126.71471299999394,127.21420660000877,127.21420660000877,127.24756920000073,127.51293719999376,128.09326170000713,right,1.0,1,1,0.8591226999997161,482189,001,2024-09-09_10h56.18.481,adaptive_staircase,2024.1.5,None,2024-09-09 10h56.24.975969 +0530,
86,0.5,1.0,128.11229789999197,,128.0936570999911,128.11229789999197,128.61182270001154,128.61182270001154,128.6452344999998,128.94445909999195,129.3929902999953,right,1.0,1,1,0.7629830999940168,482189,001,2024-09-09_10h56.18.481,adaptive_staircase,2024.1.5,None,2024-09-09 10h56.24.975969 +0530,
87,0.5,1.0,129.41162050000275,,129.39328839999507,129.41162050000275,129.9096687999845,129.9096687999845,129.9431743999885,130.24258660001215,130.95539749998716,right,1.0,1,1,1.0254537000146229,482189,001,2024-09-09_10h56.18.481,adaptive_staircase,2024.1.5,None,2024-09-09 10h56.24.975969 +0530,
88,0.5,1.0,130.9749715999933,,130.9558085000026,130.9749715999933,131.47427109998534,131.47427109998534,131.50728309998522,131.80652179999743,132.45474039998953,left,-1.0,0,0,0.9690536999842152,482189,001,2024-09-09_10h56.18.481,adaptive_staircase,2024.1.5,None,2024-09-09 10h56.24.975969 +0530,
89,0.5,1.5,132.47198880001088,,132.4552827999869,132.47198880001088,132.9715281999961,132.9715281999961,133.0046646000119,133.30507750000106,133.89063259999966,left,-1.5,0,0,0.8922703000134788,482189,001,2024-09-09_10h56.18.481,adaptive_staircase,2024.1.5,None,2024-09-09 10h56.24.975969 +0530,
90,0.5,2.0,133.90275599999586,,133.89094640000258,133.90275599999586,134.4367773999984,134.4367773999984,134.4367773999984,134.76852879999205,134.88265449999017,left,-2.0,1,1,0.42293159998371266,482189,001,2024-09-09_10h56.18.481,adaptive_staircase,2024.1.5,None,2024-09-09 10h56.24.975969 +0530,
91,0.5,2.0,134.90165650000563,,134.88304539999808,134.90165650000563,135.4009197000123,135.4009197000123,135.43413159999182,135.73342659999616,136.2837870999938,right,2.0,1,1,0.8452910000050906,482189,001,2024-09-09_10h56.18.481,adaptive_staircase,2024.1.5,None,2024-09-09 10h56.24.975969 +0530,
92,0.5,2.0,136.29941969999345,,136.28416360000847,136.29941969999345,136.83206290000817,136.83206290000817,136.83206290000817,137.16610060000676,137.5138583999942,left,-2.0,1,1,0.6727865999855567,482189,001,2024-09-09_10h56.18.481,adaptive_staircase,2024.1.5,None,2024-09-09 10h56.24.975969 +0530,
93,0.5,1.5,137.53060959998402,,137.51425519998884,137.53060959998402,138.02985459999763,138.02985459999763,138.0632207999879,138.36272559998906,138.71042439999292,right,1.5,1,1,0.6762941000051796,482189,001,2024-09-09_10h56.18.481,adaptive_staircase,2024.1.5,None,2024-09-09 10h56.24.975969 +0530,
94,0.5,1.5,138.72882590000518,,138.71067530001164,138.72882590000518,139.2279550000094,139.2279550000094,139.26137960000779,139.56069789998583,140.0111736000108,left,-1.5,1,1,0.7706367999780923,482189,001,2024-09-09_10h56.18.481,adaptive_staircase,2024.1.5,None,2024-09-09 10h56.24.975969 +0530,
95,0.5,1.5,140.02646860000095,,140.01142600001185,140.02646860000095,140.55957889999263,140.55957889999263,140.55957889999263,140.89195580000523,141.23926790000405,left,-1.5,1,1,0.6524962999974377,482189,001,2024-09-09_10h56.18.481,adaptive_staircase,2024.1.5,None,2024-09-09 10h56.24.975969 +0530,
96,0.5,1.0,141.25801570000476,,141.23964529999648,141.25801570000476,141.75733970000874,141.75733970000874,141.79073280000011,142.090031300002,142.73870290000923,right,1.0,1,1,0.9574339000100736,482189,001,2024-09-09_10h56.18.481,adaptive_staircase,2024.1.5,None,2024-09-09 10h56.24.975969 +0530,
97,0.5,1.0,142.75554949999787,,142.73912529999507,142.75554949999787,143.2547874999873,143.2547874999873,143.28820839998662,143.58849870000267,144.10118050000165,right,1.0,1,1,0.8229829000192694,482189,001,2024-09-09_10h56.18.481,adaptive_staircase,2024.1.5,None,2024-09-09 10h56.24.975969 +0530,
98,0.5,1.0,144.12018050000188,,144.10154430000694,144.12018050000188,144.62101880001137,144.62101880001137,144.65250249998644,144.951962799998,145.30099280001014,right,1.0,1,1,0.6728502000041772,482189,001,2024-09-09_10h56.18.481,adaptive_staircase,2024.1.5,None,2024-09-09 10h56.24.975969 +0530,
99,0.5,1.0,145.31842359999428,,145.3012810999935,145.31842359999428,145.8184651999909,145.8184651999909,145.8507154000108,146.15022109998972,146.4313673999859,right,1.0,1,1,0.5923785999766551,482189,001,2024-09-09_10h56.18.481,adaptive_staircase,2024.1.5,None,2024-09-09 10h56.24.975969 +0530,
