trials.thisRepN,trials.thisTrialN,trials.thisN,trials.thisIndex,thisRow.t,notes,trial.started,num_distr,fixation.started,Target.started,mouse.started,trial.stopped,mouse.x,mouse.y,mouse.leftButton,mouse.midButton,mouse.rightButton,mouse.time,mouse.clicked_name,participant,session,date,expName,psychopyVersion,frameRate,expStart,
0,0,0,0,0.09032299998216331,,0.014414799981750548,10,0.09032299998216331,0.09032299998216331,0.06325229996582493,2.143552199995611,[-0.12],[0.3616666666666667],[1],[0],[0],[2.0795325999497436],['Target'],04,001,2024-10-09_14h21.23.415,3.0 search,2024.1.5,None,2024-10-09 14h21.36.181803 +0530,
1,0,1,0,2.1882625999860466,,2.147494499979075,5,2.1882625999860466,2.1882625999860466,0.017258700041566044,5.505116599961184,[-0.11833333333333333],[0.4633333333333333],[1],[0],[0],[3.3405892999726348],['Target'],04,001,2024-10-09_14h21.23.415,3.0 search,2024.1.5,None,2024-10-09 14h21.36.181803 +0530,
2,0,2,0,5.549957299954258,,5.508177399984561,5,5.549957299954258,5.549957299954258,0.01801180001348257,6.968992699985392,[-0.19333333333333333],[0.46],[1],[0],[0],[1.4430536000290886],['Target'],04,001,2024-10-09_14h21.23.415,3.0 search,2024.1.5,None,2024-10-09 14h21.36.181803 +0530,
3,0,3,0,7.0304957999615,,6.972216399968602,10,7.0304957999615,7.0304957999615,0.03405799996107817,8.815355099970475,[0.23],[0.26666666666666666],[1],[0],[0],[1.8092876999871805],['Target'],04,001,2024-10-09_14h21.23.415,3.0 search,2024.1.5,None,2024-10-09 14h21.36.181803 +0530,
4,0,4,0,8.877434699970763,,8.818609899957664,10,8.877434699970763,8.877434699970763,0.03328839997993782,11.161516699998174,[-0.11833333333333333],[-0.31],[1],[0],[0],[2.3098805000190623],['Target'],04,001,2024-10-09_14h21.23.415,3.0 search,2024.1.5,None,2024-10-09 14h21.36.181803 +0530,
5,0,5,0,11.223849400004838,,11.16484419995686,10,11.223849400004838,11.223849400004838,0.034280399966519326,13.408059599983972,[-0.22],[-0.38166666666666665],[1],[0],[0],[2.2091623000451364],['Target'],04,001,2024-10-09_14h21.23.415,3.0 search,2024.1.5,None,2024-10-09 14h21.36.181803 +0530,
6,0,6,0,13.453457099967636,,13.411704499972984,5,13.453457099967636,13.453457099967636,0.017207800003234297,15.406303800002206,[0.2966666666666667],[-0.04833333333333333],[1],[0],[0],[1.9777064999798313],['Target'],04,001,2024-10-09_14h21.23.415,3.0 search,2024.1.5,None,2024-10-09 14h21.36.181803 +0530,
7,0,7,0,15.450581599958241,,15.409909899986815,5,15.450581599958241,15.450581599958241,0.01655970001593232,17.219280499964952,[0.045],[0.07333333333333333],[1],[0],[0],[1.7930074000032619],['Target'],04,001,2024-10-09_14h21.23.415,3.0 search,2024.1.5,None,2024-10-09 14h21.36.181803 +0530,
8,0,8,0,17.28070010000374,,17.223026099964045,10,17.28070010000374,17.28070010000374,0.03272260003723204,19.26668719999725,[0.14833333333333334],[0.49333333333333335],[1],[0],[0],[2.0111584999831393],['Target'],04,001,2024-10-09_14h21.23.415,3.0 search,2024.1.5,None,2024-10-09 14h21.36.181803 +0530,
9,0,9,0,19.327452300000004,,19.269793099956587,10,19.327452300000004,19.327452300000004,0.031668299983721226,22.027801699994598,[-0.018333333333333333],[0.22666666666666666],[1],[0],[0],[2.726520900032483],['Target'],04,001,2024-10-09_14h21.23.415,3.0 search,2024.1.5,None,2024-10-09 14h21.36.181803 +0530,
10,0,10,0,22.08952459995635,,22.031552799977362,10,22.08952459995635,22.08952459995635,0.0327197999577038,23.740834299998824,[0.17333333333333334],[0.02],[1],[0],[0],[1.676833900040947],['Target'],04,001,2024-10-09_14h21.23.415,3.0 search,2024.1.5,None,2024-10-09 14h21.36.181803 +0530,
11,0,11,0,23.770396199950483,,23.744027199980337,5,23.770396199950483,23.770396199950483,0.01622370001859963,25.64075329998741,[0.33166666666666667],[0.355],[1],[0],[0],[1.880720300017856],['Target'],04,001,2024-10-09_14h21.23.415,3.0 search,2024.1.5,None,2024-10-09 14h21.36.181803 +0530,
12,0,12,0,25.700649599952158,,25.64382239995757,10,25.700649599952158,25.700649599952158,0.03371729998616502,28.899627499980852,[0.09],[-0.4083333333333333],[1],[0],[0],[3.2223277999437414],['Target'],04,001,2024-10-09_14h21.23.415,3.0 search,2024.1.5,None,2024-10-09 14h21.36.181803 +0530,
13,0,13,0,28.94551229994977,,28.902789299958386,5,28.94551229994977,28.94551229994977,0.017689600004814565,32.2294552999665,[0.12166666666666667],[-0.04666666666666667],[1],[0],[0],[3.3090354000451043],['Target'],04,001,2024-10-09_14h21.23.415,3.0 search,2024.1.5,None,2024-10-09 14h21.36.181803 +0530,
14,0,14,0,32.273587199975736,,32.23268459999235,5,32.273587199975736,32.273587199975736,0.016840299998875707,34.40834329999052,[-0.08666666666666667],[-0.19166666666666668],[1],[0],[0],[2.159046299988404],['Target'],04,001,2024-10-09_14h21.23.415,3.0 search,2024.1.5,None,2024-10-09 14h21.36.181803 +0530,
15,0,15,0,34.470172000001185,,34.41140409995569,10,34.470172000001185,34.470172000001185,0.03264119999948889,36.90452429995639,[-0.49833333333333335],[0.11333333333333333],[1],[0],[0],[2.460723700001836],['Target'],04,001,2024-10-09_14h21.23.415,3.0 search,2024.1.5,None,2024-10-09 14h21.36.181803 +0530,
16,0,16,0,36.96599499997683,,36.90776410000399,10,36.96599499997683,36.96599499997683,0.03191499999957159,39.883851299993694,[-0.4666666666666667],[-0.4816666666666667],[1],[0],[0],[2.944477899989579],['Target'],04,001,2024-10-09_14h21.23.415,3.0 search,2024.1.5,None,2024-10-09 14h21.36.181803 +0530,
17,0,17,0,39.94424829998752,,39.88734249997651,10,39.94424829998752,39.94424829998752,0.03303419996518642,41.42871889995877,[-0.07833333333333334],[0.255],[1],[0],[0],[1.5086977000464685],['Target'],04,001,2024-10-09_14h21.23.415,3.0 search,2024.1.5,None,2024-10-09 14h21.36.181803 +0530,
18,0,18,0,41.49208339996403,,41.4317704999703,10,41.49208339996403,41.49208339996403,0.033338399953208864,43.95834249997279,[0.006666666666666667],[-0.33],[1],[0],[0],[2.493456399999559],['Target'],04,001,2024-10-09_14h21.23.415,3.0 search,2024.1.5,None,2024-10-09 14h21.36.181803 +0530,
19,0,19,0,43.98807500000112,,43.96157049998874,5,43.98807500000112,43.98807500000112,0.01670350000495091,49.468448299972806,[-0.315],[0.44666666666666666],[1],[0],[0],[5.490425800031517],['Target'],04,001,2024-10-09_14h21.23.415,3.0 search,2024.1.5,None,2024-10-09 14h21.36.181803 +0530,
20,0,20,0,49.51273969997419,,49.471615999995265,5,49.51273969997419,49.51273969997419,0.01679519994650036,52.82956459996058,[-0.07833333333333334],[0.49833333333333335],[1],[0],[0],[3.3414885999518447],['Target'],04,001,2024-10-09_14h21.23.415,3.0 search,2024.1.5,None,2024-10-09 14h21.36.181803 +0530,
21,0,21,0,52.87393489998067,,52.832758599950466,5,52.87393489998067,52.87393489998067,0.017117499955929816,54.643643599993084,[-0.42],[0.14],[1],[0],[0],[1.7940224999911152],['Target'],04,001,2024-10-09_14h21.23.415,3.0 search,2024.1.5,None,2024-10-09 14h21.36.181803 +0530,
22,0,22,0,54.70419719995698,,54.64658020000206,10,54.70419719995698,54.70419719995698,0.032484499970451,56.43957479996607,[0.48],[0.023333333333333334],[1],[0],[0],[1.7606560999993235],['Target'],04,001,2024-10-09_14h21.23.415,3.0 search,2024.1.5,None,2024-10-09 14h21.36.181803 +0530,
23,0,23,0,56.501194099953864,,56.44312999997055,10,56.501194099953864,56.501194099953864,0.032527899951674044,58.58551599999191,[0.31666666666666665],[0.45166666666666666],[1],[0],[0],[2.110185500001535],['Target'],04,001,2024-10-09_14h21.23.415,3.0 search,2024.1.5,None,2024-10-09 14h21.36.181803 +0530,
24,0,24,0,58.63114739995217,,58.5886002999614,5,58.63114739995217,58.63114739995217,0.016648499993607402,60.41681579995202,[0.115],[0.17833333333333334],[1],[0],[0],[1.8118041999987327],['Target'],04,001,2024-10-09_14h21.23.415,3.0 search,2024.1.5,None,2024-10-09 14h21.36.181803 +0530,
25,0,25,0,60.461710100003984,,60.41993079998065,5,60.461710100003984,60.461710100003984,0.01683100004447624,62.09798919997411,[-0.48833333333333334],[0.2833333333333333],[1],[0],[0],[1.6612507999525405],['Target'],04,001,2024-10-09_14h21.23.415,3.0 search,2024.1.5,None,2024-10-09 14h21.36.181803 +0530,
26,0,26,0,62.14269199996488,,62.100974300003145,5,62.14269199996488,62.14269199996488,0.016716199985239655,64.27854619995924,[-0.10333333333333333],[-0.19333333333333333],[1],[0],[0],[2.161074200004805],['Target'],04,001,2024-10-09_14h21.23.415,3.0 search,2024.1.5,None,2024-10-09 14h21.36.181803 +0530,
27,0,27,0,64.33948249998502,,64.2820478999638,10,64.33948249998502,64.33948249998502,0.03378179995343089,66.12526840000646,[-0.18],[0.30333333333333334],[1],[0],[0],[1.8097025000024587],['Target'],04,001,2024-10-09_14h21.23.415,3.0 search,2024.1.5,None,2024-10-09 14h21.36.181803 +0530,
28,0,28,0,66.16887339996174,,66.12842569994973,5,66.16887339996174,66.16887339996174,0.016930899990256876,67.62321239995072,[0.013333333333333334],[0.12333333333333334],[1],[0],[0],[1.4779997000005096],['Target'],04,001,2024-10-09_14h21.23.415,3.0 search,2024.1.5,None,2024-10-09 14h21.36.181803 +0530,
29,0,29,0,67.66662549995817,,67.62633929995354,5,67.66662549995817,67.66662549995817,0.017723799974191934,69.35260949999793,[0.051666666666666666],[0.016666666666666666],[1],[0],[0],[1.7087542000226676],['Target'],04,001,2024-10-09_14h21.23.415,3.0 search,2024.1.5,None,2024-10-09 14h21.36.181803 +0530,
30,0,30,0,69.41392389999237,,69.35576999996556,10,69.41392389999237,69.41392389999237,0.033587099984288216,70.98354200000176,[-0.16666666666666666],[0.09],[1],[0],[0],[1.5944233000045642],['Target'],04,001,2024-10-09_14h21.23.415,3.0 search,2024.1.5,None,2024-10-09 14h21.36.181803 +0530,
31,0,31,0,71.02789979998488,,70.98682639998151,5,71.02789979998488,71.02789979998488,0.01809500000672415,72.51535269996384,[-0.455],[-0.275],[1],[0],[0],[1.5106787999975495],['Target'],04,001,2024-10-09_14h21.23.415,3.0 search,2024.1.5,None,2024-10-09 14h21.36.181803 +0530,
32,0,32,0,72.55895019997843,,72.51897009997629,5,72.55895019997843,72.55895019997843,0.019007699971552938,73.96153819997562,[-0.028333333333333332],[0.14],[1],[0],[0],[1.4237101000035182],['Target'],04,001,2024-10-09_14h21.23.415,3.0 search,2024.1.5,None,2024-10-09 14h21.36.181803 +0530,
33,0,33,0,74.00654829997802,,73.9644967999775,5,74.00654829997802,74.00654829997802,0.017051500035449862,76.44132659997558,[-0.42],[-0.23666666666666666],[1],[0],[0],[2.4600167999742553],['Target'],04,001,2024-10-09_14h21.23.415,3.0 search,2024.1.5,None,2024-10-09 14h21.36.181803 +0530,
34,0,34,0,76.50260969996452,,76.44472139998106,10,76.50260969996452,76.50260969996452,0.03467249998357147,79.17049679998308,[-0.18],[-0.45666666666666667],[1],[0],[0],[2.6913215999957174],['Target'],04,001,2024-10-09_14h21.23.415,3.0 search,2024.1.5,None,2024-10-09 14h21.36.181803 +0530,
35,0,35,0,79.23174919997109,,79.17367749998812,10,79.23174919997109,79.23174919997109,0.0329510000301525,81.05088209995301,[-0.4633333333333333],[0.4083333333333333],[1],[0],[0],[1.8444853000110015],['Target'],04,001,2024-10-09_14h21.23.415,3.0 search,2024.1.5,None,2024-10-09 14h21.36.181803 +0530,
36,0,36,0,81.1119373999536,,81.05397239996819,10,81.1119373999536,81.1119373999536,0.03358039999147877,83.33062839997001,[0.22],[0.135],[1],[0],[0],[2.2431434000027366],['Target'],04,001,2024-10-09_14h21.23.415,3.0 search,2024.1.5,None,2024-10-09 14h21.36.181803 +0530,
37,0,37,0,83.37469679996138,,83.33379269996658,5,83.37469679996138,83.37469679996138,0.016406600014306605,85.59379849996185,[-0.0033333333333333335],[-0.395],[1],[0],[0],[2.2436301999841817],['Target'],04,001,2024-10-09_14h21.23.415,3.0 search,2024.1.5,None,2024-10-09 14h21.36.181803 +0530,
38,0,38,0,85.63791549997404,,85.59675500000594,5,85.63791549997404,85.63791549997404,0.016768600034993142,88.1574240999762,[0.38333333333333336],[-0.21333333333333335],[1],[0],[0],[2.544101999956183],['Target'],04,001,2024-10-09_14h21.23.415,3.0 search,2024.1.5,None,2024-10-09 14h21.36.181803 +0530,
39,0,39,0,88.216866999981,,88.16087319998769,10,88.216866999981,88.216866999981,0.03403820004314184,90.21760169998743,[0.115],[-0.32],[1],[0],[0],[2.0228894999600016],['Target'],04,001,2024-10-09_14h21.23.415,3.0 search,2024.1.5,None,2024-10-09 14h21.36.181803 +0530,
40,0,40,0,90.26396199996816,,90.22094159998232,5,90.26396199996816,90.26396199996816,0.01770690002012998,91.7335793999955,[0.07333333333333333],[0.455],[1],[0],[0],[1.4951545000076294],['Target'],04,001,2024-10-09_14h21.23.415,3.0 search,2024.1.5,None,2024-10-09 14h21.36.181803 +0530,
41,0,41,0,91.79503009998007,,91.736539000005,10,91.79503009998007,91.79503009998007,0.03450179996434599,94.77696359995753,[-0.12166666666666667],[-0.125],[1],[0],[0],[3.0060935000074096],['Target'],04,001,2024-10-09_14h21.23.415,3.0 search,2024.1.5,None,2024-10-09 14h21.36.181803 +0530,
42,0,42,0,94.8235255999607,,94.78048939997097,5,94.8235255999607,94.8235255999607,0.01765470003010705,96.90848009998444,[0.355],[0.14666666666666667],[1],[0],[0],[2.110343299980741],['Target'],04,001,2024-10-09_14h21.23.415,3.0 search,2024.1.5,None,2024-10-09 14h21.36.181803 +0530,
43,0,43,0,96.96967449999647,,96.91162389999954,10,96.96967449999647,96.96967449999647,0.0334158000187017,98.63764529995387,[0.013333333333333334],[0.11166666666666666],[1],[0],[0],[1.6927126999944448],['Target'],04,001,2024-10-09_14h21.23.415,3.0 search,2024.1.5,None,2024-10-09 14h21.36.181803 +0530,
44,0,44,0,98.7002564999857,,98.64085099997465,10,98.7002564999857,98.7002564999857,0.03350829996634275,100.65154589997837,[0.455],[0.21166666666666667],[1],[0],[0],[1.9774650000035763],['Target'],04,001,2024-10-09_14h21.23.415,3.0 search,2024.1.5,None,2024-10-09 14h21.36.181803 +0530,
45,0,45,0,100.71394289995078,,100.65476149995811,10,100.71394289995078,100.71394289995078,0.032565200002864,104.3971779999556,[0.43],[-0.035],[1],[0],[0],[3.710075900016818],['Target'],04,001,2024-10-09_14h21.23.415,3.0 search,2024.1.5,None,2024-10-09 14h21.36.181803 +0530,
46,0,46,0,104.44118520000484,,104.40027039998677,5,104.44118520000484,104.44118520000484,0.01642059994628653,106.85921539994888,[-0.006666666666666667],[-0.06833333333333333],[1],[0],[0],[2.4427566999802366],['Target'],04,001,2024-10-09_14h21.23.415,3.0 search,2024.1.5,None,2024-10-09 14h21.36.181803 +0530,
47,0,47,0,106.92039499996463,,106.8623707999941,10,106.92039499996463,106.92039499996463,0.03667659999337047,133.0662649999722,[-0.25],[-0.38166666666666665],[1],[0],[0],[26.167337899969425],['Target'],04,001,2024-10-09_14h21.23.415,3.0 search,2024.1.5,None,2024-10-09 14h21.36.181803 +0530,
48,0,48,0,133.1119249999756,,133.0698115999694,5,133.1119249999756,133.1119249999756,0.016916599997784942,134.4823527999688,[-0.33166666666666667],[-0.22666666666666666],[1],[0],[0],[1.3961260000360198],['Target'],04,001,2024-10-09_14h21.23.415,3.0 search,2024.1.5,None,2024-10-09 14h21.36.181803 +0530,
49,0,49,0,134.54302009998355,,134.48638799996115,10,134.54302009998355,134.54302009998355,0.035626200027763844,136.34372919995803,[0.3],[-0.3383333333333333],[1],[0],[0],[1.822147800005041],['Target'],04,001,2024-10-09_14h21.23.415,3.0 search,2024.1.5,None,2024-10-09 14h21.36.181803 +0530,
50,0,50,0,136.39004139997996,,136.34679659997346,5,136.39004139997996,136.39004139997996,0.017135399975813925,137.97644919995219,[0.48833333333333334],[0.11],[1],[0],[0],[1.6127817000378855],['Target'],04,001,2024-10-09_14h21.23.415,3.0 search,2024.1.5,None,2024-10-09 14h21.36.181803 +0530,
51,0,51,0,138.02088679996086,,137.9795921999612,5,138.02088679996086,138.02088679996086,0.017818099993746728,139.47334579995368,[-0.30833333333333335],[0.32166666666666666],[1],[0],[0],[1.476258400012739],['Target'],04,001,2024-10-09_14h21.23.415,3.0 search,2024.1.5,None,2024-10-09 14h21.36.181803 +0530,
52,0,52,0,139.53479259996675,,139.47638229996664,10,139.53479259996675,139.53479259996675,0.03234640002483502,141.26919629995245,[-0.14],[0.34833333333333333],[1],[0],[0],[1.760731200047303],['Target'],04,001,2024-10-09_14h21.23.415,3.0 search,2024.1.5,None,2024-10-09 14h21.36.181803 +0530,
53,0,53,0,141.33225099998526,,141.27226219995646,10,141.33225099998526,141.33225099998526,0.032278900034725666,142.90016779996222,[-0.42333333333333334],[0.295],[1],[0],[0],[1.5957767000072636],['Target'],04,001,2024-10-09_14h21.23.415,3.0 search,2024.1.5,None,2024-10-09 14h21.36.181803 +0530,
54,0,54,0,142.96263979998184,,142.9033258999698,10,142.96263979998184,142.96263979998184,0.032833000004757196,144.49866879999172,[-0.11166666666666666],[0.08333333333333333],[1],[0],[0],[1.562667499994859],['Target'],04,001,2024-10-09_14h21.23.415,3.0 search,2024.1.5,None,2024-10-09 14h21.36.181803 +0530,
55,0,55,0,144.54349829995772,,144.50252379995072,5,144.54349829995772,144.54349829995772,0.01736150000942871,145.78129159996752,[0.11666666666666667],[0.20833333333333334],[1],[0],[0],[1.2617380000301637],['Target'],04,001,2024-10-09_14h21.23.415,3.0 search,2024.1.5,None,2024-10-09 14h21.36.181803 +0530,
56,0,56,0,145.84201769996434,,145.78452849999303,10,145.84201769996434,145.84201769996434,0.0321373000042513,147.44463869999163,[-0.37],[-0.08333333333333333],[1],[0],[0],[1.6280949999927543],['Target'],04,001,2024-10-09_14h21.23.415,3.0 search,2024.1.5,None,2024-10-09 14h21.36.181803 +0530,
57,0,57,0,147.49038529995596,,147.44783749995986,5,147.49038529995596,147.49038529995596,0.017325500026345253,148.9752276999643,[-0.32166666666666666],[-0.3416666666666667],[1],[0],[0],[1.5102678000112064],['Target'],04,001,2024-10-09_14h21.23.415,3.0 search,2024.1.5,None,2024-10-09 14h21.36.181803 +0530,
58,0,58,0,149.02001419995213,,148.97835249995114,5,149.02001419995213,149.02001419995213,0.01662789995316416,151.33797100000083,[0.4716666666666667],[0.36833333333333335],[1],[0],[0],[2.3432330999639817],['Target'],04,001,2024-10-09_14h21.23.415,3.0 search,2024.1.5,None,2024-10-09 14h21.36.181803 +0530,
59,0,59,0,151.38273959996877,,151.3410762999556,5,151.38273959996877,151.38273959996877,0.016387599986046553,153.25204569997732,[-0.21666666666666667],[0.4083333333333333],[1],[0],[0],[1.8947739000432193],['Target'],04,001,2024-10-09_14h21.23.415,3.0 search,2024.1.5,None,2024-10-09 14h21.36.181803 +0530,
60,0,60,0,153.2963049999671,,153.25510919996304,5,153.2963049999671,153.2963049999671,0.017072100017685443,154.88298199995188,[0.155],[-0.09166666666666666],[1],[0],[0],[1.6111094999941997],['Target'],04,001,2024-10-09_14h21.23.415,3.0 search,2024.1.5,None,2024-10-09 14h21.36.181803 +0530,
61,0,61,0,154.9271992999711,,154.8864057000028,5,154.9271992999711,154.9271992999711,0.016744400025345385,157.0947610999574,[-0.49333333333333335],[-0.13166666666666665],[1],[0],[0],[2.1918038000003435],['Target'],04,001,2024-10-09_14h21.23.415,3.0 search,2024.1.5,None,2024-10-09 14h21.36.181803 +0530,
62,0,62,0,157.14018609997584,,157.09816009999486,5,157.14018609997584,157.14018609997584,0.016769099980592728,159.0099433999858,[0.35],[-0.31166666666666665],[1],[0],[0],[1.8952035999973305],['Target'],04,001,2024-10-09_14h21.23.415,3.0 search,2024.1.5,None,2024-10-09 14h21.36.181803 +0530,
63,0,63,0,159.0536551999976,,159.01308139995672,5,159.0536551999976,159.0536551999976,0.016855499998200685,160.62486669997452,[-0.2683333333333333],[0.13],[1],[0],[0],[1.5951448999694549],['Target'],04,001,2024-10-09_14h21.23.415,3.0 search,2024.1.5,None,2024-10-09 14h21.36.181803 +0530,
64,0,64,0,160.6842640999821,,160.6284016999998,10,160.6842640999821,160.6842640999821,0.03189310000743717,162.93700549995992,[0.38333333333333336],[-0.08333333333333333],[1],[0],[0],[2.2770234999479726],['Target'],04,001,2024-10-09_14h21.23.415,3.0 search,2024.1.5,None,2024-10-09 14h21.36.181803 +0530,
65,0,65,0,162.98067609994905,,162.94172619999154,5,162.98067609994905,162.98067609994905,0.018384900002274662,165.3996027999674,[0.11166666666666666],[-0.42833333333333334],[1],[0],[0],[2.440007600001991],['Target'],04,001,2024-10-09_14h21.23.415,3.0 search,2024.1.5,None,2024-10-09 14h21.36.181803 +0530,
66,0,66,0,165.44338089996018,,165.40251689997967,5,165.44338089996018,165.44338089996018,0.016685000038705766,167.5627488999744,[0.18],[-0.23333333333333334],[1],[0],[0],[2.143755399971269],['Target'],04,001,2024-10-09_14h21.23.415,3.0 search,2024.1.5,None,2024-10-09 14h21.36.181803 +0530,
67,0,67,0,167.62333219998982,,167.56621989997802,10,167.62333219998982,167.62333219998982,0.03239040001062676,169.5751206999994,[-0.475],[0.475],[1],[0],[0],[1.9767239000066184],['Target'],04,001,2024-10-09_14h21.23.415,3.0 search,2024.1.5,None,2024-10-09 14h21.36.181803 +0530,
68,0,68,0,169.63682879996486,,169.57870149996597,10,169.63682879996486,169.63682879996486,0.03395269997417927,171.7388232999947,[-0.23833333333333334],[0.24166666666666667],[1],[0],[0],[2.126424100017175],['Target'],04,001,2024-10-09_14h21.23.415,3.0 search,2024.1.5,None,2024-10-09 14h21.36.181803 +0530,
69,0,69,0,171.79984679998597,,171.74243529996602,10,171.79984679998597,171.79984679998597,0.0333593999966979,173.81687699997565,[-0.28],[-0.3],[1],[0],[0],[2.0416799999657087],['Target'],04,001,2024-10-09_14h21.23.415,3.0 search,2024.1.5,None,2024-10-09 14h21.36.181803 +0530,
70,0,70,0,173.88021199998911,,173.82008799997857,10,173.88021199998911,173.88021199998911,0.0323612000211142,175.93093629996292,[0.23333333333333334],[0.015],[1],[0],[0],[2.0787466999609023],['Target'],04,001,2024-10-09_14h21.23.415,3.0 search,2024.1.5,None,2024-10-09 14h21.36.181803 +0530,
71,0,71,0,175.97658919997048,,175.93401480000466,5,175.97658919997048,175.97658919997048,0.01649020001059398,177.96186609996948,[-0.49],[-0.365],[1],[0],[0],[2.011595399992075],['Target'],04,001,2024-10-09_14h21.23.415,3.0 search,2024.1.5,None,2024-10-09 14h21.36.181803 +0530,
72,0,72,0,178.02319009997882,,177.9650493999943,10,178.02319009997882,178.02319009997882,0.03200870001455769,179.70790399995167,[-0.17833333333333334],[0.1],[1],[0],[0],[1.7110975999967195],['Target'],04,001,2024-10-09_14h21.23.415,3.0 search,2024.1.5,None,2024-10-09 14h21.36.181803 +0530,
73,0,73,0,179.75386959995376,,179.71135579998372,5,179.75386959995376,179.75386959995376,0.017258799984119833,182.00563569995575,[0.3],[-0.205],[1],[0],[0],[2.277271000028122],['Target'],04,001,2024-10-09_14h21.23.415,3.0 search,2024.1.5,None,2024-10-09 14h21.36.181803 +0530,
74,0,74,0,182.06686479999917,,182.00899909995496,10,182.06686479999917,182.06686479999917,0.032271399977616966,183.9356958999997,[0.26],[0.028333333333333332],[1],[0],[0],[1.8945992999942973],['Target'],04,001,2024-10-09_14h21.23.415,3.0 search,2024.1.5,None,2024-10-09 14h21.36.181803 +0530,
75,0,75,0,183.9803025999572,,183.93884259997867,5,183.9803025999572,183.9803025999572,0.017265999980736524,185.71674269996583,[-0.2916666666666667],[0.09333333333333334],[1],[0],[0],[1.7608821999747306],['Target'],04,001,2024-10-09_14h21.23.415,3.0 search,2024.1.5,None,2024-10-09 14h21.36.181803 +0530,
76,0,76,0,185.77783549996093,,185.71979539998574,10,185.77783549996093,185.77783549996093,0.03335349995177239,187.79485829995247,[-0.32],[0.38],[1],[0],[0],[2.0418469999567606],['Target'],04,001,2024-10-09_14h21.23.415,3.0 search,2024.1.5,None,2024-10-09 14h21.36.181803 +0530,
77,0,77,0,187.87436529999832,,187.79801669996232,10,187.87436529999832,187.87436529999832,0.050767800014000386,189.80927659996087,[0.225],[-0.19333333333333333],[1],[0],[0],[1.9607390000019222],['Target'],04,001,2024-10-09_14h21.23.415,3.0 search,2024.1.5,None,2024-10-09 14h21.36.181803 +0530,
78,0,78,0,189.8709133999655,,189.81262039998546,10,189.8709133999655,189.8709133999655,0.03347720002057031,191.55666869995184,[-0.33166666666666667],[0.4166666666666667],[1],[0],[0],[1.7108967000385746],['Target'],04,001,2024-10-09_14h21.23.415,3.0 search,2024.1.5,None,2024-10-09 14h21.36.181803 +0530,
79,0,79,0,191.60149039997486,,191.56029649998527,5,191.60149039997486,191.60149039997486,0.01815269998041913,193.57024390000151,[0.4766666666666667],[0.14666666666666667],[1],[0],[0],[1.9919868999859318],['Target'],04,001,2024-10-09_14h21.23.415,3.0 search,2024.1.5,None,2024-10-09 14h21.36.181803 +0530,
80,0,80,0,193.61498929996742,,193.57397509994917,5,193.61498929996742,193.61498929996742,0.017301499960012734,195.05197739996947,[-0.37],[0.235],[1],[0],[0],[1.46091330004856],['Target'],04,001,2024-10-09_14h21.23.415,3.0 search,2024.1.5,None,2024-10-09 14h21.36.181803 +0530,
81,0,81,0,195.09595289995195,,195.05558980000205,5,195.09595289995195,195.09595289995195,0.017443999997340143,196.43333609995898,[-0.4116666666666667],[0.27166666666666667],[1],[0],[0],[1.3605991999502294],['Target'],04,001,2024-10-09_14h21.23.415,3.0 search,2024.1.5,None,2024-10-09 14h21.36.181803 +0530,
82,0,82,0,196.4936319999979,,196.4364937999635,10,196.4936319999979,196.4936319999979,0.03193940001074225,197.83000379998703,[-0.49666666666666665],[0.2683333333333333],[1],[0],[0],[1.3618060000007972],['Target'],04,001,2024-10-09_14h21.23.415,3.0 search,2024.1.5,None,2024-10-09 14h21.36.181803 +0530,
83,0,83,0,197.87490419996902,,197.83320229995297,5,197.87490419996902,197.87490419996902,0.017356200027279556,199.5272950999788,[0.195],[0.3],[1],[0],[0],[1.676933699985966],['Target'],04,001,2024-10-09_14h21.23.415,3.0 search,2024.1.5,None,2024-10-09 14h21.36.181803 +0530,
84,0,84,0,199.57220209995285,,199.53035069996258,5,199.57220209995285,199.57220209995285,0.016301800031214952,200.8930065999739,[0.028333333333333332],[0.285],[1],[0],[0],[1.3464883000124246],['Target'],04,001,2024-10-09_14h21.23.415,3.0 search,2024.1.5,None,2024-10-09 14h21.36.181803 +0530,
85,0,85,0,200.9534284999827,,200.89617009996437,10,200.9534284999827,200.9534284999827,0.03196439996827394,202.95388990000356,[-0.18],[-0.19333333333333333],[1],[0],[0],[2.0260239000199363],['Target'],04,001,2024-10-09_14h21.23.415,3.0 search,2024.1.5,None,2024-10-09 14h21.36.181803 +0530,
86,0,86,0,203.01679899997544,,202.95687619998353,10,203.01679899997544,203.01679899997544,0.0320322000188753,204.38647509994917,[0.3233333333333333],[-0.21],[1],[0],[0],[1.3977856999845244],['Target'],04,001,2024-10-09_14h21.23.415,3.0 search,2024.1.5,None,2024-10-09 14h21.36.181803 +0530,
87,0,87,0,204.44756479997886,,204.3896565999603,10,204.44756479997886,204.44756479997886,0.031518900010269135,206.2650337999803,[0.475],[-0.3933333333333333],[1],[0],[0],[1.8441065999795683],['Target'],04,001,2024-10-09_14h21.23.415,3.0 search,2024.1.5,None,2024-10-09 14h21.36.181803 +0530,
88,0,88,0,206.3279865999939,,206.26809259998845,10,206.3279865999939,206.3279865999939,0.03132600005483255,207.59724439994898,[0.095],[-0.005],[1],[0],[0],[1.2980142000014894],['Target'],04,001,2024-10-09_14h21.23.415,3.0 search,2024.1.5,None,2024-10-09 14h21.36.181803 +0530,
89,0,89,0,207.6425796999829,,207.6004408999579,5,207.6425796999829,207.6425796999829,0.017209600016940385,209.36178409995046,[0.4716666666666667],[0.18],[1],[0],[0],[1.7444593000109307],['Target'],04,001,2024-10-09_14h21.23.415,3.0 search,2024.1.5,None,2024-10-09 14h21.36.181803 +0530,
90,0,90,0,209.48931519995676,,209.36485519999405,10,209.48931519995676,209.48931519995676,0.10059639997780323,211.60675439995248,[-0.275],[-0.42833333333333334],[1],[0],[0],[2.141507200023625],['Target'],04,001,2024-10-09_14h21.23.415,3.0 search,2024.1.5,None,2024-10-09 14h21.36.181803 +0530,
91,0,91,0,211.66938639996806,,211.61009380000178,10,211.66938639996806,211.66938639996806,0.03376700001535937,213.4396177000017,[-0.26666666666666666],[-0.10666666666666667],[1],[0],[0],[1.7960624999832362],['Target'],04,001,2024-10-09_14h21.23.415,3.0 search,2024.1.5,None,2024-10-09 14h21.36.181803 +0530,
92,0,92,0,213.48321779997787,,213.44400839996524,5,213.48321779997787,213.48321779997787,0.01843579998239875,215.36961080000037,[-0.19666666666666666],[0.22333333333333333],[1],[0],[0],[1.9078312999918126],['Target'],04,001,2024-10-09_14h21.23.415,3.0 search,2024.1.5,None,2024-10-09 14h21.36.181803 +0530,
93,0,93,0,215.4134420999908,,215.37277819996234,5,215.4134420999908,215.4134420999908,0.01745899999514222,216.78336499998113,[-0.04],[0.16333333333333333],[1],[0],[0],[1.393376799998805],['Target'],04,001,2024-10-09_14h21.23.415,3.0 search,2024.1.5,None,2024-10-09 14h21.36.181803 +0530,
94,0,94,0,216.84435119997943,,216.78640319994884,10,216.84435119997943,216.84435119997943,0.032809399999678135,218.47883859998547,[0.03166666666666667],[-0.175],[1],[0],[0],[1.6598634000401944],['Target'],04,001,2024-10-09_14h21.23.415,3.0 search,2024.1.5,None,2024-10-09 14h21.36.181803 +0530,
95,0,95,0,218.52514929999597,,218.48238529998343,5,218.52514929999597,218.52514929999597,0.01754540001275018,219.92784179997398,[-0.055],[0.3616666666666667],[1],[0],[0],[1.4281650999910198],['Target'],04,001,2024-10-09_14h21.23.415,3.0 search,2024.1.5,None,2024-10-09 14h21.36.181803 +0530,
96,0,96,0,219.98942019999959,,219.93096279999008,10,219.98942019999959,219.98942019999959,0.03210670000407845,221.94008919998305,[-0.29333333333333333],[-0.05],[1],[0],[0],[1.9772585000027902],['Target'],04,001,2024-10-09_14h21.23.415,3.0 search,2024.1.5,None,2024-10-09 14h21.36.181803 +0530,
97,0,97,0,221.98624909995124,,221.94330459996127,5,221.98624909995124,221.98624909995124,0.017637199955061078,224.20450979995076,[0.09],[0.06833333333333333],[1],[0],[0],[2.243839700007811],['Target'],04,001,2024-10-09_14h21.23.415,3.0 search,2024.1.5,None,2024-10-09 14h21.36.181803 +0530,
98,0,98,0,224.26597750000656,,224.20764559996314,10,224.26597750000656,224.26597750000656,0.032982699980493635,226.33569509995868,[0.4116666666666667],[-0.255],[1],[0],[0],[2.0952940999995917],['Target'],04,001,2024-10-09_14h21.23.415,3.0 search,2024.1.5,None,2024-10-09 14h21.36.181803 +0530,
99,0,99,0,226.39587189996382,,226.33974729996407,10,226.39587189996382,226.39587189996382,0.03152530000079423,228.16496189997997,[0.385],[-0.17333333333333334],[1],[0],[0],[1.79392419999931],['Target'],04,001,2024-10-09_14h21.23.415,3.0 search,2024.1.5,None,2024-10-09 14h21.36.181803 +0530,
100,0,100,0,228.22690989996772,,228.16811629995937,10,228.22690989996772,228.22690989996772,0.03285570000298321,229.81295519997366,[0.24666666666666667],[-0.013333333333333334],[1],[0],[0],[1.6121970000094734],['Target'],04,001,2024-10-09_14h21.23.415,3.0 search,2024.1.5,None,2024-10-09 14h21.36.181803 +0530,
101,0,101,0,229.8572448999621,,229.81615979998605,5,229.8572448999621,229.8572448999621,0.016461300023365766,231.42594029998872,[-0.11],[-0.035],[1],[0],[0],[1.5935628999723122],['Target'],04,001,2024-10-09_14h21.23.415,3.0 search,2024.1.5,None,2024-10-09 14h21.36.181803 +0530,
102,0,102,0,231.47110249998514,,231.42916080000577,5,231.47110249998514,231.47110249998514,0.017303099972195923,233.38987979997182,[0.45666666666666667],[-0.46],[1],[0],[0],[1.9435503000277095],['Target'],04,001,2024-10-09_14h21.23.415,3.0 search,2024.1.5,None,2024-10-09 14h21.36.181803 +0530,
103,0,103,0,233.43451150000328,,233.39293349999934,5,233.43451150000328,233.43451150000328,0.016684599977452308,235.43701120000333,[-0.29833333333333334],[-0.4683333333333333],[1],[0],[0],[2.027524400036782],['Target'],04,001,2024-10-09_14h21.23.415,3.0 search,2024.1.5,None,2024-10-09 14h21.36.181803 +0530,
104,0,104,0,235.4814303999883,,235.4401495999773,5,235.4814303999883,235.4814303999883,0.01668869995046407,237.99971219996223,[0.25833333333333336],[-0.125],[1],[0],[0],[2.5431661999900825],['Target'],04,001,2024-10-09_14h21.23.415,3.0 search,2024.1.5,None,2024-10-09 14h21.36.181803 +0530,
105,0,105,0,238.06045619997894,,238.00278859998798,10,238.06045619997894,238.06045619997894,0.03172369999811053,240.14825319999363,[-0.37333333333333335],[-0.44666666666666666],[1],[0],[0],[2.113871300010942],['Target'],04,001,2024-10-09_14h21.23.415,3.0 search,2024.1.5,None,2024-10-09 14h21.36.181803 +0530,
106,0,106,0,240.19038990000263,,240.1518231999944,5,240.19038990000263,240.19038990000263,0.017488099983893335,242.1438833999564,[-0.03833333333333333],[0.355],[1],[0],[0],[1.9751234999857843],['Target'],04,001,2024-10-09_14h21.23.415,3.0 search,2024.1.5,None,2024-10-09 14h21.36.181803 +0530,
107,0,107,0,242.18729209998855,,242.1471057999879,5,242.18729209998855,242.18729209998855,0.01732589997118339,243.70669969997834,[-0.4766666666666667],[0.39666666666666667],[1],[0],[0],[1.542574799968861],['Target'],04,001,2024-10-09_14h21.23.415,3.0 search,2024.1.5,None,2024-10-09 14h21.36.181803 +0530,
108,0,108,0,243.76804309996078,,243.70971019996796,10,243.76804309996078,243.76804309996078,0.033470099966507405,245.98562379996292,[-0.36],[-0.38166666666666665],[1],[0],[0],[2.2426333999610506],['Target'],04,001,2024-10-09_14h21.23.415,3.0 search,2024.1.5,None,2024-10-09 14h21.36.181803 +0530,
109,0,109,0,246.03101499995682,,245.98879279999528,5,246.03101499995682,246.03101499995682,0.017296999983955175,247.91747319995193,[-0.03666666666666667],[0.30333333333333334],[1],[0],[0],[1.9116608999902382],['Target'],04,001,2024-10-09_14h21.23.415,3.0 search,2024.1.5,None,2024-10-09 14h21.36.181803 +0530,
110,0,110,0,247.97816810000222,,247.92067249998217,10,247.97816810000222,247.97816810000222,0.03377440001349896,249.34892999997828,[-0.17333333333333334],[0.36833333333333335],[1],[0],[0],[1.394672599970363],['Target'],04,001,2024-10-09_14h21.23.415,3.0 search,2024.1.5,None,2024-10-09 14h21.36.181803 +0530,
111,0,111,0,249.39225529995747,,249.35231679998105,5,249.39225529995747,249.39225529995747,0.01813350000884384,249.49771899997722,[-0.17333333333333334],[0.36833333333333335],[1],[0],[0],[0.12772029999177903],[],04,001,2024-10-09_14h21.23.415,3.0 search,2024.1.5,None,2024-10-09 14h21.36.181803 +0530,
112,0,112,0,249.54210729995975,,249.5009877999546,5,249.54210729995975,249.54210729995975,0.016939699999056756,252.55895059998147,[0.016666666666666666],[0.025],[1],[0],[0],[3.0414204000262544],['Target'],04,001,2024-10-09_14h21.23.415,3.0 search,2024.1.5,None,2024-10-09 14h21.36.181803 +0530,
113,0,113,0,252.60378459998174,,252.5619299999671,5,252.60378459998174,252.60378459998174,0.01777340000262484,254.27424449997488,[0.31333333333333335],[0.3516666666666667],[1],[0],[0],[1.6947378999902867],[],04,001,2024-10-09_14h21.23.415,3.0 search,2024.1.5,None,2024-10-09 14h21.36.181803 +0530,
114,0,114,0,254.3179758999613,,254.27721469994867,5,254.3179758999613,254.3179758999613,0.018641899980138987,256.3033065999625,[-0.08333333333333333],[0.3433333333333333],[1],[0],[0],[2.00766790000489],['Target'],04,001,2024-10-09_14h21.23.415,3.0 search,2024.1.5,None,2024-10-09 14h21.36.181803 +0530,
115,0,115,0,256.3477086999919,,256.30643739999505,5,256.3477086999919,256.3477086999919,0.018854499969165772,257.90078969998285,[0.24333333333333335],[0.058333333333333334],[1],[0],[0],[1.5757417000131682],['Target'],04,001,2024-10-09_14h21.23.415,3.0 search,2024.1.5,None,2024-10-09 14h21.36.181803 +0530,
116,0,116,0,257.96218370000133,,257.9038253999897,10,257.96218370000133,257.96218370000133,0.03341059997910634,260.11210489994846,[0.15166666666666667],[-0.12833333333333333],[1],[0],[0],[2.175101300003007],['Target'],04,001,2024-10-09_14h21.23.415,3.0 search,2024.1.5,None,2024-10-09 14h21.36.181803 +0530,
117,0,117,0,260.158217899967,,260.1152421999723,5,260.158217899967,260.158217899967,0.017025800014380366,261.87728309998056,[-0.4083333333333333],[-0.205],[1],[0],[0],[1.7452974999905564],['Target'],04,001,2024-10-09_14h21.23.415,3.0 search,2024.1.5,None,2024-10-09 14h21.36.181803 +0530,
118,0,118,0,261.92231130000437,,261.8804073999636,5,261.92231130000437,261.92231130000437,0.01828719995683059,263.40928009996423,[0.18833333333333332],[0.37666666666666665],[1],[0],[0],[1.5108806999633089],['Target'],04,001,2024-10-09_14h21.23.415,3.0 search,2024.1.5,None,2024-10-09 14h21.36.181803 +0530,
119,0,119,0,263.4699483999866,,263.41222850000486,10,263.4699483999866,263.4699483999866,0.03271370002767071,265.78836039995076,[0.2733333333333333],[0.11166666666666666],[1],[0],[0],[2.3436373000149615],['Target'],04,001,2024-10-09_14h21.23.415,3.0 search,2024.1.5,None,2024-10-09 14h21.36.181803 +0530,
120,0,120,0,265.83263129997067,,265.79159009997966,5,265.83263129997067,265.83263129997067,0.017067099979612976,267.61893090000376,[0.01],[0.13833333333333334],[1],[0],[0],[1.8106236000312492],['Target'],04,001,2024-10-09_14h21.23.415,3.0 search,2024.1.5,None,2024-10-09 14h21.36.181803 +0530,
121,0,121,0,267.67980089999037,,267.62222709995694,10,267.67980089999037,267.67980089999037,0.03404719999525696,270.21404519997304,[0.006666666666666667],[-0.4166666666666667],[1],[0],[0],[2.5582534999703057],['Target'],04,001,2024-10-09_14h21.23.415,3.0 search,2024.1.5,None,2024-10-09 14h21.36.181803 +0530,
122,0,122,0,270.2754885999602,,270.2172715999768,10,270.2754885999602,270.2754885999602,0.03429430001415312,271.99341629998526,[-0.06333333333333334],[-0.018333333333333333],[1],[0],[0],[1.742053899972234],['Target'],04,001,2024-10-09_14h21.23.415,3.0 search,2024.1.5,None,2024-10-09 14h21.36.181803 +0530,
123,0,123,0,272.05629589996533,,271.9965777999605,10,272.05629589996533,272.05629589996533,0.0329624000005424,274.157994899957,[0.15333333333333332],[0.07],[1],[0],[0],[2.128730700002052],['Target'],04,001,2024-10-09_14h21.23.415,3.0 search,2024.1.5,None,2024-10-09 14h21.36.181803 +0530,
124,0,124,0,274.2024183999747,,274.1618449999951,5,274.2024183999747,274.2024183999747,0.01730680000036955,276.65456140000606,[-0.08],[-0.33166666666666667],[1],[0],[0],[2.475748799974099],['Target'],04,001,2024-10-09_14h21.23.415,3.0 search,2024.1.5,None,2024-10-09 14h21.36.181803 +0530,
125,0,125,0,276.6988235999597,,276.65767230000347,5,276.6988235999597,276.6988235999597,0.017728000006172806,279.21698460000334,[-0.42833333333333334],[0.405],[1],[0],[0],[2.5418566999724135],['Target'],04,001,2024-10-09_14h21.23.415,3.0 search,2024.1.5,None,2024-10-09 14h21.36.181803 +0530,
126,0,126,0,279.2783107999712,,279.22000339999795,10,279.2783107999712,279.2783107999712,0.03385190002154559,281.0467773999553,[-0.115],[0.245],[1],[0],[0],[1.7931065000011586],['Target'],04,001,2024-10-09_14h21.23.415,3.0 search,2024.1.5,None,2024-10-09 14h21.36.181803 +0530,
127,0,127,0,281.0911500999937,,281.05155340000056,5,281.0911500999937,281.0911500999937,0.019078199984505773,282.77866049995646,[0.49166666666666664],[0.05333333333333334],[1],[0],[0],[1.7087881999905221],['Target'],04,001,2024-10-09_14h21.23.415,3.0 search,2024.1.5,None,2024-10-09 14h21.36.181803 +0530,
128,0,128,0,282.8387771999696,,282.7818207999808,10,282.8387771999696,282.8387771999696,0.03303880000021309,284.4563391999691,[0.22166666666666668],[0.155],[1],[0],[0],[1.6418302000383846],['Target'],04,001,2024-10-09_14h21.23.415,3.0 search,2024.1.5,None,2024-10-09 14h21.36.181803 +0530,
129,0,129,0,284.48592700000154,,284.45947989996057,5,284.48592700000154,284.48592700000154,0.017030299990437925,286.0886797999847,[-0.265],[0.095],[1],[0],[0],[1.6124016999965534],['Target'],04,001,2024-10-09_14h21.23.415,3.0 search,2024.1.5,None,2024-10-09 14h21.36.181803 +0530,
130,0,130,0,286.1335198999732,,286.0916939000017,5,286.1335198999732,286.1335198999732,0.017384400009177625,287.81970999995247,[0.1],[-0.37],[1],[0],[0],[1.7108350000344217],['Target'],04,001,2024-10-09_14h21.23.415,3.0 search,2024.1.5,None,2024-10-09 14h21.36.181803 +0530,
131,0,131,0,287.8807348999544,,287.8229084999766,10,287.8807348999544,287.8807348999544,0.03251510002883151,289.45051349996356,[-0.36833333333333335],[0.365],[1],[0],[0],[1.5955044999718666],['Target'],04,001,2024-10-09_14h21.23.415,3.0 search,2024.1.5,None,2024-10-09 14h21.36.181803 +0530,
132,0,132,0,289.51139929995406,,289.4537564999773,10,289.51139929995406,289.51139929995406,0.03314170002704486,291.2953470000066,[0.09333333333333334],[0.011666666666666667],[1],[0],[0],[1.8088232000009157],['Target'],04,001,2024-10-09_14h21.23.415,3.0 search,2024.1.5,None,2024-10-09 14h21.36.181803 +0530,
133,0,133,0,291.3254998999764,,291.29848569998285,5,291.3254998999764,291.3254998999764,0.016812899964861572,292.9451484999736,[-0.065],[-0.13333333333333333],[1],[0],[0],[1.6300995000055991],['Target'],04,001,2024-10-09_14h21.23.415,3.0 search,2024.1.5,None,2024-10-09 14h21.36.181803 +0530,
134,0,134,0,292.9892394999624,,292.9482624999946,5,292.9892394999624,292.9892394999624,0.0167910999734886,296.04028479999397,[-0.016666666666666666],[0.175],[1],[0],[0],[3.0754481000476517],['Target'],04,001,2024-10-09_14h21.23.415,3.0 search,2024.1.5,None,2024-10-09 14h21.36.181803 +0530,
135,0,135,0,296.0842322999961,,296.04333449999103,5,296.0842322999961,296.0842322999961,0.016799200035165995,299.06849739997415,[0.465],[0.29333333333333333],[1],[0],[0],[3.0084405000088736],['Target'],04,001,2024-10-09_14h21.23.415,3.0 search,2024.1.5,None,2024-10-09 14h21.36.181803 +0530,
136,0,136,0,299.11277429998154,,299.07145309995394,5,299.11277429998154,299.11277429998154,0.017326899978797883,300.4817739999853,[0.21833333333333332],[0.185],[1],[0],[0],[1.393226100015454],['Target'],04,001,2024-10-09_14h21.23.415,3.0 search,2024.1.5,None,2024-10-09 14h21.36.181803 +0530,
137,0,137,0,300.5270912999986,,300.4848000999773,5,300.5270912999986,300.5270912999986,0.016585399978794158,301.7468096999801,[0.225],[0.23833333333333334],[1],[0],[0],[1.245664799993392],['Target'],04,001,2024-10-09_14h21.23.415,3.0 search,2024.1.5,None,2024-10-09 14h21.36.181803 +0530,
138,0,138,0,301.80854209995596,,301.7499914999935,10,301.80854209995596,301.80854209995596,0.0320748999947682,303.86122009996325,[0.48833333333333334],[-0.235],[1],[0],[0],[2.079388400015887],['Target'],04,001,2024-10-09_14h21.23.415,3.0 search,2024.1.5,None,2024-10-09 14h21.36.181803 +0530,
139,0,139,0,303.92188909999095,,303.86590669996804,10,303.92188909999095,303.92188909999095,0.03209719998994842,305.6393550999928,[0.23833333333333334],[0.09],[1],[0],[0],[1.7417487999773584],['Target'],04,001,2024-10-09_14h21.23.415,3.0 search,2024.1.5,None,2024-10-09 14h21.36.181803 +0530,
140,0,140,0,305.701948300004,,305.64247419999447,10,305.701948300004,305.701948300004,0.03170630004024133,307.3366230999818,[0.14166666666666666],[0.3933333333333333],[1],[0],[0],[1.6626473999931477],['Target'],04,001,2024-10-09_14h21.23.415,3.0 search,2024.1.5,None,2024-10-09 14h21.36.181803 +0530,
141,0,141,0,307.39982160000363,,307.3397591999965,10,307.39982160000363,307.39982160000363,0.03167229995597154,309.3167806999991,[-0.2816666666666667],[-0.11166666666666666],[1],[0],[0],[1.9455317999818362],['Target'],04,001,2024-10-09_14h21.23.415,3.0 search,2024.1.5,None,2024-10-09 14h21.36.181803 +0530,
142,0,142,0,309.3627704999526,,309.3198012999492,5,309.3627704999526,309.3627704999526,0.017560500011313707,310.8986679999507,[0.125],[-0.25833333333333336],[1],[0],[0],[1.5615799999795854],['Target'],04,001,2024-10-09_14h21.23.415,3.0 search,2024.1.5,None,2024-10-09 14h21.36.181803 +0530,
143,0,143,0,310.9437132999883,,310.90177209995454,5,310.9437132999883,310.9437132999883,0.017956600000616163,313.0455740999896,[-0.49],[0.4633333333333333],[1],[0],[0],[2.125931499991566],['Target'],04,001,2024-10-09_14h21.23.415,3.0 search,2024.1.5,None,2024-10-09 14h21.36.181803 +0530,
144,0,144,0,313.09037349995924,,313.04873229999794,5,313.09037349995924,313.09037349995924,0.01638479996472597,314.81003389996476,[-0.2683333333333333],[-0.175],[1],[0],[0],[1.7450742000364698],['Target'],04,001,2024-10-09_14h21.23.415,3.0 search,2024.1.5,None,2024-10-09 14h21.36.181803 +0530,
145,0,145,0,314.854128499981,,314.8143363999552,5,314.854128499981,314.854128499981,0.016646499978378415,316.5402414999553,[0.03833333333333333],[0.18166666666666667],[1],[0],[0],[1.7094856999465264],['Target'],04,001,2024-10-09_14h21.23.415,3.0 search,2024.1.5,None,2024-10-09 14h21.36.181803 +0530,
146,0,146,0,316.58462280000094,,316.5433051,5,316.58462280000094,316.58462280000094,0.017073700029868633,318.07143630000064,[-0.26666666666666666],[0.10666666666666667],[1],[0],[0],[1.5112240000162274],['Target'],04,001,2024-10-09_14h21.23.415,3.0 search,2024.1.5,None,2024-10-09 14h21.36.181803 +0530,
147,0,147,0,318.11558769998373,,318.07505319995107,5,318.11558769998373,318.11558769998373,0.017263299960177392,320.9004406000022,[-0.0033333333333333335],[-0.07666666666666666],[1],[0],[0],[2.808739699947182],['Target'],04,001,2024-10-09_14h21.23.415,3.0 search,2024.1.5,None,2024-10-09 14h21.36.181803 +0530,
148,0,148,0,320.94440320000285,,320.9035786999739,5,320.94440320000285,320.94440320000285,0.01608269999269396,322.2973114000051,[0.135],[-0.16],[1],[0],[0],[1.3779061999521218],['Target'],04,001,2024-10-09_14h21.23.415,3.0 search,2024.1.5,None,2024-10-09 14h21.36.181803 +0530,
149,0,149,0,322.34201979998033,,322.30076479999116,5,322.34201979998033,322.34201979998033,0.017621400009375066,324.1441140999668,[0.22],[-0.4683333333333333],[1],[0],[0],[1.8259044000296853],['Target'],04,001,2024-10-09_14h21.23.415,3.0 search,2024.1.5,None,2024-10-09 14h21.36.181803 +0530,
150,0,150,0,324.2057794999564,,324.14746609999565,10,324.2057794999564,324.2057794999564,0.03310070000588894,326.45586789998924,[-0.39],[-0.02666666666666667],[1],[0],[0],[2.275513200031128],['Target'],04,001,2024-10-09_14h21.23.415,3.0 search,2024.1.5,None,2024-10-09 14h21.36.181803 +0530,
151,0,151,0,326.51881129998947,,326.4588891000021,10,326.51881129998947,326.51881129998947,0.031474700022954494,328.3221361999749,[-0.3333333333333333],[-0.09666666666666666],[1],[0],[0],[1.8320196000277065],['Target'],04,001,2024-10-09_14h21.23.415,3.0 search,2024.1.5,None,2024-10-09 14h21.36.181803 +0530,
152,0,152,0,328.38228299998445,,328.3252471999731,10,328.38228299998445,328.38228299998445,0.033273199980612844,332.1318253999925,[0.22666666666666666],[0.4766666666666667],[1],[0],[0],[3.773463499965146],['Target'],04,001,2024-10-09_14h21.23.415,3.0 search,2024.1.5,None,2024-10-09 14h21.36.181803 +0530,
153,0,153,0,332.17645279999124,,332.13497660000576,5,332.17645279999124,332.17645279999124,0.01620140002341941,335.72691159998067,[0.2633333333333333],[0.3283333333333333],[1],[0],[0],[3.575909800012596],['Target'],04,001,2024-10-09_14h21.23.415,3.0 search,2024.1.5,None,2024-10-09 14h21.36.181803 +0530,
154,0,154,0,335.7704832999734,,335.7299613999785,5,335.7704832999734,335.7704832999734,0.016249099979177117,338.0381574999774,[-0.5033333333333333],[-0.11],[1],[0],[0],[2.292143099999521],['Target'],04,001,2024-10-09_14h21.23.415,3.0 search,2024.1.5,None,2024-10-09 14h21.36.181803 +0530,
155,0,155,0,338.10027989995433,,338.0412465999834,10,338.10027989995433,338.10027989995433,0.031190500012598932,339.83440389996395,[-0.22],[-0.07666666666666666],[1],[0],[0],[1.7620954999583773],['Target'],04,001,2024-10-09_14h21.23.415,3.0 search,2024.1.5,None,2024-10-09 14h21.36.181803 +0530,
156,0,156,0,339.8973375999485,,339.8375058999518,10,339.8973375999485,339.8973375999485,0.03409209998790175,341.4155816999846,[-0.36666666666666664],[0.02666666666666667],[1],[0],[0],[1.544161300000269],['Target'],04,001,2024-10-09_14h21.23.415,3.0 search,2024.1.5,None,2024-10-09 14h21.36.181803 +0530,
157,0,157,0,341.47815019998234,,341.41872799996054,10,341.47815019998234,341.47815019998234,0.03300299996044487,343.5619012999814,[0.42833333333333334],[0.31833333333333336],[1],[0],[0],[2.1103382999426685],['Target'],04,001,2024-10-09_14h21.23.415,3.0 search,2024.1.5,None,2024-10-09 14h21.36.181803 +0530,
158,0,158,0,343.6247785000014,,343.56492539995816,10,343.6247785000014,343.6247785000014,0.030974999943282455,344.8955060999724,[0.2683333333333333],[0.21166666666666667],[1],[0],[0],[1.2998127999599092],['Target'],04,001,2024-10-09_14h21.23.415,3.0 search,2024.1.5,None,2024-10-09 14h21.36.181803 +0530,
159,0,159,0,344.95597289997386,,344.8987150999601,10,344.95597289997386,344.95597289997386,0.03149399999529123,346.62606449995656,[-0.395],[0.13166666666666665],[1],[0],[0],[1.6960966000333428],['Target'],04,001,2024-10-09_14h21.23.415,3.0 search,2024.1.5,None,2024-10-09 14h21.36.181803 +0530,
160,0,160,0,346.68639919999987,,346.62928699998884,10,346.68639919999987,346.68639919999987,0.03194459999212995,348.78901680000126,[0.07666666666666666],[-0.44166666666666665],[1],[0],[0],[2.1277716999757104],['Target'],04,001,2024-10-09_14h21.23.415,3.0 search,2024.1.5,None,2024-10-09 14h21.36.181803 +0530,
161,0,161,0,348.833065099956,,348.7930534000043,5,348.833065099956,348.833065099956,0.01819829997839406,350.4523084999528,[0.235],[0.041666666666666664],[1],[0],[0],[1.6414801999926567],['Target'],04,001,2024-10-09_14h21.23.415,3.0 search,2024.1.5,None,2024-10-09 14h21.36.181803 +0530,
162,0,162,0,350.49700539995683,,350.45542519999435,5,350.49700539995683,350.49700539995683,0.01643710001371801,352.7484517999692,[0.42333333333333334],[-0.155],[1],[0],[0],[2.2768779000034556],['Target'],04,001,2024-10-09_14h21.23.415,3.0 search,2024.1.5,None,2024-10-09 14h21.36.181803 +0530,
163,0,163,0,352.7933391999686,,352.7515328999725,5,352.7933391999686,352.7933391999686,0.01648299995576963,354.32986759999767,[-0.215],[-0.16333333333333333],[1],[0],[0],[1.5620766999782063],['Target'],04,001,2024-10-09_14h21.23.415,3.0 search,2024.1.5,None,2024-10-09 14h21.36.181803 +0530,
164,0,164,0,354.3742258999846,,354.3330027000047,5,354.3742258999846,354.3742258999846,0.016498000011779368,356.89291689998936,[-0.4666666666666667],[-0.24333333333333335],[1],[0],[0],[2.543682900024578],['Target'],04,001,2024-10-09_14h21.23.415,3.0 search,2024.1.5,None,2024-10-09 14h21.36.181803 +0530,
165,0,165,0,356.95342759997584,,356.8960506999865,10,356.95342759997584,356.95342759997584,0.03204429999459535,359.03846989996964,[0.40166666666666667],[0.27166666666666667],[1],[0],[0],[2.110475499997847],['Target'],04,001,2024-10-09_14h21.23.415,3.0 search,2024.1.5,None,2024-10-09 14h21.36.181803 +0530,
166,0,166,0,359.0832968999748,,359.041640499956,5,359.0832968999748,359.0832968999748,0.016577899979893118,360.9852706999518,[0.23833333333333334],[-0.005],[1],[0],[0],[1.9273221000330523],['Target'],04,001,2024-10-09_14h21.23.415,3.0 search,2024.1.5,None,2024-10-09 14h21.36.181803 +0530,
167,0,167,0,361.03004499996314,,360.9885293999687,5,361.03004499996314,361.03004499996314,0.01722509996034205,362.63308010000037,[-0.13166666666666665],[0.11],[1],[0],[0],[1.6275272999773733],['Target'],04,001,2024-10-09_14h21.23.415,3.0 search,2024.1.5,None,2024-10-09 14h21.36.181803 +0530,
168,0,168,0,362.69436229998246,,362.6362483999692,10,362.69436229998246,362.69436229998246,0.03221159998793155,364.16253899998264,[-0.04833333333333333],[0.051666666666666666],[1],[0],[0],[1.4943040999933146],['Target'],04,001,2024-10-09_14h21.23.415,3.0 search,2024.1.5,None,2024-10-09 14h21.36.181803 +0530,
169,0,169,0,364.2252017999999,,364.16594799997984,10,364.2252017999999,364.2252017999999,0.03301610000198707,366.2436156999902,[0.21666666666666667],[-0.2733333333333333],[1],[0],[0],[2.0448734000092372],['Target'],04,001,2024-10-09_14h21.23.415,3.0 search,2024.1.5,None,2024-10-09 14h21.36.181803 +0530,
170,0,170,0,366.2882363999961,,366.2475210999837,5,366.2882363999961,366.2882363999961,0.017473500047344714,367.59152249997715,[0.0],[-0.185],[1],[0],[0],[1.3268861999968067],['Target'],04,001,2024-10-09_14h21.23.415,3.0 search,2024.1.5,None,2024-10-09 14h21.36.181803 +0530,
171,0,171,0,367.6530805999646,,367.59469090000493,10,367.6530805999646,367.6530805999646,0.033431699965149164,369.6536443999503,[-0.2783333333333333],[-0.2783333333333333],[1],[0],[0],[2.0257065999903716],['Target'],04,001,2024-10-09_14h21.23.415,3.0 search,2024.1.5,None,2024-10-09 14h21.36.181803 +0530,
172,0,172,0,369.6996178999543,,369.65663300000597,5,369.6996178999543,369.6996178999543,0.016996600024867803,372.01759790000506,[-0.37666666666666665],[0.33],[1],[0],[0],[2.344224000000395],['Target'],04,001,2024-10-09_14h21.23.415,3.0 search,2024.1.5,None,2024-10-09 14h21.36.181803 +0530,
173,0,173,0,372.0792271999526,,372.02066169999307,10,372.0792271999526,372.0792271999526,0.03329580003628507,374.3131928999792,[-0.165],[-0.21],[1],[0],[0],[2.2594816999626346],['Target'],04,001,2024-10-09_14h21.23.415,3.0 search,2024.1.5,None,2024-10-09 14h21.36.181803 +0530,
174,0,174,0,374.3591980999918,,374.3163440999924,5,374.3591980999918,374.3591980999918,0.016551300010178238,376.37723469996126,[-0.07833333333333334],[0.27666666666666667],[1],[0],[0],[2.044562999974005],['Target'],04,001,2024-10-09_14h21.23.415,3.0 search,2024.1.5,None,2024-10-09 14h21.36.181803 +0530,
175,0,175,0,376.4222604999668,,376.3804614999681,5,376.4222604999668,376.4222604999668,0.01719550002599135,378.14156429999275,[0.04666666666666667],[0.06166666666666667],[1],[0],[0],[1.744138500012923],['Target'],04,001,2024-10-09_14h21.23.415,3.0 search,2024.1.5,None,2024-10-09 14h21.36.181803 +0530,
176,0,176,0,378.18625899998005,,378.14457999996375,5,378.18625899998005,378.18625899998005,0.01707110001007095,380.10464279999724,[0.13166666666666665],[-0.14833333333333334],[1],[0],[0],[1.9432660000165924],['Target'],04,001,2024-10-09_14h21.23.415,3.0 search,2024.1.5,None,2024-10-09 14h21.36.181803 +0530,
177,0,177,0,380.1660378999659,,380.10771849995945,10,380.1660378999659,380.1660378999659,0.03180559998145327,381.7857395999599,[0.32666666666666666],[0.05333333333333334],[1],[0],[0],[1.6464261999935843],['Target'],04,001,2024-10-09_14h21.23.415,3.0 search,2024.1.5,None,2024-10-09 14h21.36.181803 +0530,
178,0,178,0,381.83021049998933,,381.78880099998787,5,381.83021049998933,381.83021049998933,0.01640590000897646,383.3668749999488,[-0.37833333333333335],[-0.02],[1],[0],[0],[1.5619078999734484],['Target'],04,001,2024-10-09_14h21.23.415,3.0 search,2024.1.5,None,2024-10-09 14h21.36.181803 +0530,
179,0,179,0,383.4109717999818,,383.3700373999891,5,383.4109717999818,383.4109717999818,0.016317199973855168,385.41284999996424,[-0.10333333333333333],[0.075],[1],[0],[0],[2.0268393000005744],['Target'],04,001,2024-10-09_14h21.23.415,3.0 search,2024.1.5,None,2024-10-09 14h21.36.181803 +0530,
180,0,180,0,385.4579678999726,,385.41596039995784,5,385.4579678999726,385.4579678999726,0.01670940004987642,387.54386899998644,[0.225],[-0.475],[1],[0],[0],[2.1114414999610744],['Target'],04,001,2024-10-09_14h21.23.415,3.0 search,2024.1.5,None,2024-10-09 14h21.36.181803 +0530,
181,0,181,0,387.58746589999646,,387.5468273999868,5,387.58746589999646,387.58746589999646,0.01679859997238964,389.0736840000027,[-0.19333333333333333],[0.22],[1],[0],[0],[1.5103148000198416],['Target'],04,001,2024-10-09_14h21.23.415,3.0 search,2024.1.5,None,2024-10-09 14h21.36.181803 +0530,
182,0,182,0,389.13506149995374,,389.07691579998937,10,389.13506149995374,389.13506149995374,0.03218089998699725,390.8215358000016,[-0.36333333333333334],[-0.30333333333333334],[1],[0],[0],[1.7124561999808066],['Target'],04,001,2024-10-09_14h21.23.415,3.0 search,2024.1.5,None,2024-10-09 14h21.36.181803 +0530,
183,0,183,0,390.8656120999949,,390.8246973999776,5,390.8656120999949,390.8656120999949,0.0169894999708049,392.4524277999881,[-0.42333333333333334],[-0.415],[1],[0],[0],[1.6109725999995135],['Target'],04,001,2024-10-09_14h21.23.415,3.0 search,2024.1.5,None,2024-10-09 14h21.36.181803 +0530,
184,0,184,0,392.49644829996396,,392.4554650999489,5,392.49644829996396,392.49644829996396,0.016861100040841848,394.1155716999783,[-0.195],[0.22833333333333333],[1],[0],[0],[1.6434574999730103],['Target'],04,001,2024-10-09_14h21.23.415,3.0 search,2024.1.5,None,2024-10-09 14h21.36.181803 +0530,
185,0,185,0,394.1606669999892,,394.11879350000527,5,394.1606669999892,394.1606669999892,0.017959299962967634,395.6302777999663,[-0.43666666666666665],[0.4116666666666667],[1],[0],[0],[1.493646599992644],['Target'],04,001,2024-10-09_14h21.23.415,3.0 search,2024.1.5,None,2024-10-09 14h21.36.181803 +0530,
186,0,186,0,395.67476769996574,,395.63354479998816,5,395.67476769996574,395.67476769996574,0.01776290003908798,397.46082219999516,[0.12833333333333333],[-0.03833333333333333],[1],[0],[0],[1.8099526999867521],['Target'],04,001,2024-10-09_14h21.23.415,3.0 search,2024.1.5,None,2024-10-09 14h21.36.181803 +0530,
187,0,187,0,397.52161830000114,,397.46428610000294,10,397.52161830000114,397.52161830000114,0.032692399981897324,399.19395659997826,[0.04833333333333333],[0.39666666666666667],[1],[0],[0],[1.6969042000127956],['Target'],04,001,2024-10-09_14h21.23.415,3.0 search,2024.1.5,None,2024-10-09 14h21.36.181803 +0530,
188,0,188,0,399.269065600005,,399.203878899978,10,399.269065600005,399.269065600005,0.04139050003141165,401.52059499995084,[0.48833333333333334],[-0.46166666666666667],[1],[0],[0],[2.2785427999915555],['Target'],04,001,2024-10-09_14h21.23.415,3.0 search,2024.1.5,None,2024-10-09 14h21.36.181803 +0530,
189,0,189,0,401.5819501999649,,401.5236925999634,10,401.5819501999649,401.5819501999649,0.031155999982729554,404.8137055999832,[0.27],[-0.13666666666666666],[1],[0],[0],[3.259116100030951],['Target'],04,001,2024-10-09_14h21.23.415,3.0 search,2024.1.5,None,2024-10-09 14h21.36.181803 +0530,
190,0,190,0,404.8434534999542,,404.81679469998926,5,404.8434534999542,404.8434534999542,0.01653050002641976,408.759543299966,[-0.4766666666666667],[0.04666666666666667],[1],[0],[0],[3.926459699985571],['Target'],04,001,2024-10-09_14h21.23.415,3.0 search,2024.1.5,None,2024-10-09 14h21.36.181803 +0530,
191,0,191,0,408.82013879995793,,408.7626074999571,10,408.82013879995793,408.82013879995793,0.03178159997332841,411.00493509997614,[0.42],[-0.41333333333333333],[1],[0],[0],[2.2106138999806717],['Target'],04,001,2024-10-09_14h21.23.415,3.0 search,2024.1.5,None,2024-10-09 14h21.36.181803 +0530,
192,0,192,0,411.0667104999884,,411.0080794999958,10,411.0667104999884,411.0667104999884,0.03342910000355914,412.9855656999862,[-0.18166666666666667],[0.405],[1],[0],[0],[1.9443105000536889],['Target'],04,001,2024-10-09_14h21.23.415,3.0 search,2024.1.5,None,2024-10-09 14h21.36.181803 +0530,
193,0,193,0,413.0301791999955,,412.9885815999587,5,413.0301791999955,413.0301791999955,0.017119400028605014,414.65049299999373,[-0.35],[-0.125],[1],[0],[0],[1.6449005999602377],['Target'],04,001,2024-10-09_14h21.23.415,3.0 search,2024.1.5,None,2024-10-09 14h21.36.181803 +0530,
194,0,194,0,414.69419149996247,,414.65370659995824,5,414.69419149996247,414.69419149996247,0.017366299987770617,417.0622629999998,[-0.20166666666666666],[-0.2866666666666667],[1],[0],[0],[2.391377999971155],['Target'],04,001,2024-10-09_14h21.23.415,3.0 search,2024.1.5,None,2024-10-09 14h21.36.181803 +0530,
195,0,195,0,417.1249937999528,,417.0653989999555,10,417.1249937999528,417.1249937999528,0.03172989998711273,420.5076075999532,[0.27166666666666667],[0.16666666666666666],[1],[0],[0],[3.4107473000185564],['Target'],04,001,2024-10-09_14h21.23.415,3.0 search,2024.1.5,None,2024-10-09 14h21.36.181803 +0530,
196,0,196,0,420.5513376999879,,420.5107563000056,5,420.5513376999879,420.5513376999879,0.016525100043509156,422.5866724999505,[0.35833333333333334],[-0.3566666666666667],[1],[0],[0],[2.059668199974112],['Target'],04,001,2024-10-09_14h21.23.415,3.0 search,2024.1.5,None,2024-10-09 14h21.36.181803 +0530,
197,0,197,0,422.64798589999555,,422.58988089999184,10,422.64798589999555,422.64798589999555,0.032313000003341585,424.6318091999856,[-0.07],[0.33],[1],[0],[0],[2.009894600021653],['Target'],04,001,2024-10-09_14h21.23.415,3.0 search,2024.1.5,None,2024-10-09 14h21.36.181803 +0530,
198,0,198,0,424.67804809997324,,424.6348558999598,5,424.67804809997324,424.67804809997324,0.016956200008280575,426.5975392999826,[0.03666666666666667],[0.135],[1],[0],[0],[1.9459145999862812],['Target'],04,001,2024-10-09_14h21.23.415,3.0 search,2024.1.5,None,2024-10-09 14h21.36.181803 +0530,
199,0,199,0,426.64169649995165,,426.6008028999786,5,426.64169649995165,426.64169649995165,0.01693629997316748,428.39394249999896,[-0.49833333333333335],[-0.345],[1],[0],[0],[1.7765724000055343],['Target'],04,001,2024-10-09_14h21.23.415,3.0 search,2024.1.5,None,2024-10-09 14h21.36.181803 +0530,
