trials.thisRepN,trials.thisTrialN,trials.thisN,trials.thisIndex,thisRow.t,notes,trial.started,num_distr,fixation.started,Target.started,mouse.started,trial.stopped,mouse.x,mouse.y,mouse.leftButton,mouse.midButton,mouse.rightButton,mouse.time,mouse.clicked_name,participant,session,date,expName,psychopyVersion,frameRate,expStart,
0,0,0,0,0.1427232999703847,,0.02275900001404807,10,0.1427232999703847,0.1427232999703847,0.11693149997154251,1.8451522999675944,[-0.21833333333333332],[0.3516666666666667],[1],[0],[0],[1.7272479999810457],['Target'],546840,001,2024-10-08_16h34.40.152,3.0 search,2024.1.5,None,2024-10-08 16h34.49.704616 +0530,
1,0,1,0,1.9078496000147425,,1.8491084999986924,10,1.9078496000147425,1.9078496000147425,0.03273060003994033,3.3325957999913953,[-0.12],[0.30333333333333334],[1],[0],[0],[1.4506286000250839],['Target'],546840,001,2024-10-08_16h34.40.152,3.0 search,2024.1.5,None,2024-10-08 16h34.49.704616 +0530,
2,0,2,0,3.4214523999835365,,3.3418329000123776,10,3.4214523999835365,3.4214523999835365,0.05999769998015836,4.781853199994657,[-0.27166666666666667],[-0.14],[1],[0],[0],[1.381016900006216],['Target'],546840,001,2024-10-08_16h34.40.152,3.0 search,2024.1.5,None,2024-10-08 16h34.49.704616 +0530,
3,0,3,0,4.871623300015926,,4.792402999999467,5,4.871623300015926,4.871623300015926,0.0425309999845922,6.095718099968508,[-0.3016666666666667],[0.18],[1],[0],[0],[1.2617223999695852],['Target'],546840,001,2024-10-08_16h34.40.152,3.0 search,2024.1.5,None,2024-10-08 16h34.49.704616 +0530,
4,0,4,0,6.167713199974969,,6.107529999979306,5,6.167713199974969,6.167713199974969,0.04573799995705485,7.444049299985636,[-0.06333333333333334],[0.3933333333333333],[1],[0],[0],[1.292068799957633],['Target'],546840,001,2024-10-08_16h34.40.152,3.0 search,2024.1.5,None,2024-10-08 16h34.49.704616 +0530,
5,0,5,0,7.548809500003699,,7.457274799991865,5,7.548809500003699,7.548809500003699,0.05528710002545267,8.822737100010272,[0.24],[0.12],[1],[0],[0],[1.3112178000155836],['Target'],546840,001,2024-10-08_16h34.40.152,3.0 search,2024.1.5,None,2024-10-08 16h34.49.704616 +0530,
6,0,6,0,8.913233799976297,,8.833841099985875,10,8.913233799976297,8.913233799976297,0.05956159997731447,10.670734299987089,[-0.25166666666666665],[0.49],[1],[0],[0],[1.7789970000158064],['Target'],546840,001,2024-10-08_16h34.40.152,3.0 search,2024.1.5,None,2024-10-08 16h34.49.704616 +0530,
7,0,7,0,10.76063560001785,,10.685292600013781,5,10.76063560001785,10.76063560001785,0.0504986000014469,12.68565669999225,[0.425],[-0.065],[1],[0],[0],[1.9506627999944612],['Target'],546840,001,2024-10-08_16h34.40.152,3.0 search,2024.1.5,None,2024-10-08 16h34.49.704616 +0530,
8,0,8,0,12.791074200009461,,12.696342299983371,10,12.791074200009461,12.791074200009461,0.07197659998200834,14.171368299983442,[-0.09333333333333334],[0.051666666666666666],[1],[0],[0],[1.4037365000112914],['Target'],546840,001,2024-10-08_16h34.40.152,3.0 search,2024.1.5,None,2024-10-08 16h34.49.704616 +0530,
9,0,9,0,14.254543300019577,,14.188591399986763,5,14.254543300019577,14.254543300019577,0.0491030000266619,15.496308800007682,[-0.45166666666666666],[-0.03],[1],[0],[0],[1.2623810999793932],['Target'],546840,001,2024-10-08_16h34.40.152,3.0 search,2024.1.5,None,2024-10-08 16h34.49.704616 +0530,
10,0,10,0,15.618737699987832,,15.506534399988595,10,15.618737699987832,15.618737699987832,0.08507970004575327,16.845267799973954,[0.32166666666666666],[0.06833333333333333],[1],[0],[0],[1.254723299993202],['Target'],546840,001,2024-10-08_16h34.40.152,3.0 search,2024.1.5,None,2024-10-08 16h34.49.704616 +0530,
11,0,11,0,16.933294599992223,,16.857486699998844,10,16.933294599992223,16.933294599992223,0.06198279996169731,19.014689599978738,[0.4166666666666667],[0.17333333333333334],[1],[0],[0],[2.0958034000359476],['Target'],546840,001,2024-10-08_16h34.40.152,3.0 search,2024.1.5,None,2024-10-08 16h34.49.704616 +0530,
12,0,12,0,19.13019830000121,,19.031625400006305,10,19.13019830000121,19.13019830000121,0.07389120000880212,21.245458799996413,[0.47833333333333333],[0.48333333333333334],[1],[0],[0],[2.1434230000013486],['Target'],546840,001,2024-10-08_16h34.40.152,3.0 search,2024.1.5,None,2024-10-08 16h34.49.704616 +0530,
13,0,13,0,21.359646699973382,,21.260871600010432,5,21.359646699973382,21.359646699973382,0.07228540000505745,23.00739559996873,[-0.44666666666666666],[0.4066666666666667],[1],[0],[0],[1.6777719000237994],['Target'],546840,001,2024-10-08_16h34.40.152,3.0 search,2024.1.5,None,2024-10-08 16h34.49.704616 +0530,
14,0,14,0,23.14042429998517,,23.022553999966476,10,23.14042429998517,23.14042429998517,0.09125339996535331,24.671139999991283,[0.095],[-0.15666666666666668],[1],[0],[0],[1.5594733000034466],['Target'],546840,001,2024-10-08_16h34.40.152,3.0 search,2024.1.5,None,2024-10-08 16h34.49.704616 +0530,
15,0,15,0,24.75443109998014,,24.689527500013355,5,24.75443109998014,24.75443109998014,0.05402059998596087,25.962524299975485,[-0.38],[-0.115],[1],[0],[0],[1.222838399989996],['Target'],546840,001,2024-10-08_16h34.40.152,3.0 search,2024.1.5,None,2024-10-08 16h34.49.704616 +0530,
16,0,16,0,26.035938799963333,,25.975089300016407,5,26.035938799963333,26.035938799963333,0.03602800000226125,28.47498070000438,[-0.37333333333333335],[-0.4816666666666667],[1],[0],[0],[2.465420999971684],['Target'],546840,001,2024-10-08_16h34.40.152,3.0 search,2024.1.5,None,2024-10-08 16h34.49.704616 +0530,
17,0,17,0,28.564861399994697,,28.486403699964285,10,28.564861399994697,28.564861399994697,0.056577500014100224,30.103032899962272,[-0.03666666666666667],[0.19666666666666666],[1],[0],[0],[1.5609598999726586],['Target'],546840,001,2024-10-08_16h34.40.152,3.0 search,2024.1.5,None,2024-10-08 16h34.49.704616 +0530,
18,0,18,0,30.179030300001614,,30.11071629996877,10,30.179030300001614,30.179030300001614,0.05141750001348555,31.445003199973144,[-0.245],[0.12833333333333333],[1],[0],[0],[1.2829837000463158],['Target'],546840,001,2024-10-08_16h34.40.152,3.0 search,2024.1.5,None,2024-10-08 16h34.49.704616 +0530,
19,0,19,0,31.52709230000619,,31.460714099986944,5,31.52709230000619,31.52709230000619,0.04204899998148903,33.15042149997316,[0.20833333333333334],[0.14666666666666667],[1],[0],[0],[1.650082400010433],['Target'],546840,001,2024-10-08_16h34.40.152,3.0 search,2024.1.5,None,2024-10-08 16h34.49.704616 +0530,
20,0,20,0,33.27435429999605,,33.16026839998085,10,33.27435429999605,33.27435429999605,0.08554950001416728,34.34939739998663,[0.12666666666666668],[0.155],[1],[0],[0],[1.10478640004294],['Target'],546840,001,2024-10-08_16h34.40.152,3.0 search,2024.1.5,None,2024-10-08 16h34.49.704616 +0530,
21,0,21,0,34.42279069998767,,34.358519200002775,5,34.42279069998767,34.42279069998767,0.03792769997380674,35.78297629998997,[0.24833333333333332],[-0.24333333333333335],[1],[0],[0],[1.3874965999857523],['Target'],546840,001,2024-10-08_16h34.40.152,3.0 search,2024.1.5,None,2024-10-08 16h34.49.704616 +0530,
22,0,22,0,35.86993300000904,,35.79311269999016,5,35.86993300000904,35.86993300000904,0.04749029997037724,38.59253530000569,[-0.3983333333333333],[0.31333333333333335],[1],[0],[0],[2.7530623000347987],['Target'],546840,001,2024-10-08_16h34.40.152,3.0 search,2024.1.5,None,2024-10-08 16h34.49.704616 +0530,
23,0,23,0,38.68256579997251,,38.601797199982684,5,38.68256579997251,38.68256579997251,0.04345339996507391,40.25734010001179,[-0.245],[0.09666666666666666],[1],[0],[0],[1.6129865000257269],['Target'],546840,001,2024-10-08_16h34.40.152,3.0 search,2024.1.5,None,2024-10-08 16h34.49.704616 +0530,
24,0,24,0,40.32939139998052,,40.26924479997251,5,40.32939139998052,40.32939139998052,0.04717109998455271,42.45277580001857,[0.35],[-0.28],[1],[0],[0],[2.1392247999901883],['Target'],546840,001,2024-10-08_16h34.40.152,3.0 search,2024.1.5,None,2024-10-08 16h34.49.704616 +0530,
25,0,25,0,42.54240450001089,,42.46360740001546,10,42.54240450001089,42.54240450001089,0.05827780003892258,43.99090649996651,[-0.075],[0.17333333333333334],[1],[0],[0],[1.4699523000163026],['Target'],546840,001,2024-10-08_16h34.40.152,3.0 search,2024.1.5,None,2024-10-08 16h34.49.704616 +0530,
26,0,26,0,44.10689449997153,,44.00766359997215,10,44.10689449997153,44.10689449997153,0.07594969996716827,46.273302000015974,[-0.06],[-0.4866666666666667],[1],[0],[0],[2.191663999983575],['Target'],546840,001,2024-10-08_16h34.40.152,3.0 search,2024.1.5,None,2024-10-08 16h34.49.704616 +0530,
27,0,27,0,46.41975729999831,,46.2948408999946,10,46.41975729999831,46.41975729999831,0.09533330000704154,48.485478699964006,[0.375],[-0.09333333333333334],[1],[0],[0],[2.097057400038466],['Target'],546840,001,2024-10-08_16h34.40.152,3.0 search,2024.1.5,None,2024-10-08 16h34.49.704616 +0530,
28,0,28,0,48.58263730001636,,48.50086089997785,10,48.58263730001636,48.58263730001636,0.0692078999709338,50.10670309996931,[0.3883333333333333],[-0.34833333333333333],[1],[0],[0],[1.5400467999861576],['Target'],546840,001,2024-10-08_16h34.40.152,3.0 search,2024.1.5,None,2024-10-08 16h34.49.704616 +0530,
29,0,29,0,50.23039089998929,,50.11850400001276,10,50.23039089998929,50.23039089998929,0.07617199997184798,51.6575884000049,[0.15333333333333332],[-0.31333333333333335],[1],[0],[0],[1.463318900030572],['Target'],546840,001,2024-10-08_16h34.40.152,3.0 search,2024.1.5,None,2024-10-08 16h34.49.704616 +0530,
30,0,30,0,51.77795089996653,,51.677135000005364,10,51.77795089996653,51.77795089996653,0.08233710000058636,53.63395390001824,[-0.43],[-0.20166666666666666],[1],[0],[0],[1.87740890000714],['Target'],546840,001,2024-10-08_16h34.40.152,3.0 search,2024.1.5,None,2024-10-08 16h34.49.704616 +0530,
31,0,31,0,53.741951300005894,,53.64105049998034,10,53.741951300005894,53.741951300005894,0.0660057999775745,55.41423260001466,[-0.3333333333333333],[0.405],[1],[0],[0],[1.7086305999546312],['Target'],546840,001,2024-10-08_16h34.40.152,3.0 search,2024.1.5,None,2024-10-08 16h34.49.704616 +0530,
32,0,32,0,55.53845509997336,,55.426293099997565,10,55.53845509997336,55.53845509997336,0.07735729997511953,57.256096499972045,[0.07666666666666666],[0.08333333333333333],[1],[0],[0],[1.7541748999501579],['Target'],546840,001,2024-10-08_16h34.40.152,3.0 search,2024.1.5,None,2024-10-08 16h34.49.704616 +0530,
33,0,33,0,57.31891919998452,,57.259170299977995,10,57.31891919998452,57.31891919998452,0.03285309998318553,58.97547989996383,[0.13833333333333334],[-0.29833333333333334],[1],[0],[0],[1.683358899957966],['Target'],546840,001,2024-10-08_16h34.40.152,3.0 search,2024.1.5,None,2024-10-08 16h34.49.704616 +0530,
34,0,34,0,59.066197799984366,,58.984356399974786,10,59.066197799984366,59.066197799984366,0.06449080002494156,60.85063459997764,[0.35],[-0.18833333333333332],[1],[0],[0],[1.802338499983307],['Target'],546840,001,2024-10-08_16h34.40.152,3.0 search,2024.1.5,None,2024-10-08 16h34.49.704616 +0530,
35,0,35,0,60.946526999992784,,60.86943750001956,5,60.946526999992784,60.946526999992784,0.05382420000387356,62.730816299968865,[-0.4266666666666667],[0.2683333333333333],[1],[0],[0],[1.8106228000251576],[],546840,001,2024-10-08_16h34.40.152,3.0 search,2024.1.5,None,2024-10-08 16h34.49.704616 +0530,
36,0,36,0,62.843233999970835,,62.746490099991206,5,62.843233999970835,62.843233999970835,0.07243749999906868,64.31662359996699,[-0.17333333333333334],[0.48833333333333334],[1],[0],[0],[1.4998105999547988],['Target'],546840,001,2024-10-08_16h34.40.152,3.0 search,2024.1.5,None,2024-10-08 16h34.49.704616 +0530,
37,0,37,0,64.40737359999912,,64.32850200001849,10,64.40737359999912,64.40737359999912,0.06226110004354268,65.84750869998243,[0.04833333333333333],[-0.22666666666666666],[1],[0],[0],[1.4577202000073157],['Target'],546840,001,2024-10-08_16h34.40.152,3.0 search,2024.1.5,None,2024-10-08 16h34.49.704616 +0530,
38,0,38,0,65.95484419999411,,65.85844699997688,10,65.95484419999411,65.95484419999411,0.07399519998580217,67.2048630999634,[-0.485],[0.25],[1],[0],[0],[1.2729801000095904],['Target'],546840,001,2024-10-08_16h34.40.152,3.0 search,2024.1.5,None,2024-10-08 16h34.49.704616 +0530,
39,0,39,0,67.3033640999929,,67.22230889997445,5,67.3033640999929,67.3033640999929,0.05589239997789264,69.64220010000281,[-0.23833333333333334],[0.4683333333333333],[1],[0],[0],[2.367916700022761],['Target'],546840,001,2024-10-08_16h34.40.152,3.0 search,2024.1.5,None,2024-10-08 16h34.49.704616 +0530,
40,0,40,0,69.71560769999633,,69.65326459996868,5,69.71560769999633,69.71560769999633,0.03635400003986433,71.32207349996315,[0.44166666666666665],[0.45],[1],[0],[0],[1.6339965999941342],[],546840,001,2024-10-08_16h34.40.152,3.0 search,2024.1.5,None,2024-10-08 16h34.49.704616 +0530,
41,0,41,0,71.3969611999928,,71.331703200005,5,71.3969611999928,71.3969611999928,0.043432700040284544,73.30448350001825,[-0.285],[-0.2866666666666667],[1],[0],[0],[1.9302373999962583],['Target'],546840,001,2024-10-08_16h34.40.152,3.0 search,2024.1.5,None,2024-10-08 16h34.49.704616 +0530,
42,0,42,0,73.35956660000375,,73.3136062999838,5,73.35956660000375,73.35956660000375,0.03683140000794083,74.74991429998772,[-0.06166666666666667],[-0.26666666666666666],[1],[0],[0],[1.4003754999721423],['Target'],546840,001,2024-10-08_16h34.40.152,3.0 search,2024.1.5,None,2024-10-08 16h34.49.704616 +0530,
43,0,43,0,74.8410118999891,,74.76105809997534,5,74.8410118999891,74.8410118999891,0.04240540001774207,75.88120689999778,[-0.18166666666666667],[0.12166666666666667],[1],[0],[0],[1.0785005000070669],[],546840,001,2024-10-08_16h34.40.152,3.0 search,2024.1.5,None,2024-10-08 16h34.49.704616 +0530,
44,0,44,0,75.93899049999891,,75.88982549996581,5,75.93899049999891,75.93899049999891,0.03762199997436255,77.32918289996451,[-0.4716666666666667],[0.12333333333333334],[1],[0],[0],[1.4036337000434287],['Target'],546840,001,2024-10-08_16h34.40.152,3.0 search,2024.1.5,None,2024-10-08 16h34.49.704616 +0530,
45,0,45,0,77.42056679999223,,77.34191369998734,10,77.42056679999223,77.42056679999223,0.06586159998551011,79.37290469999425,[0.06166666666666667],[-0.15],[1],[0],[0],[1.9672138000023551],['Target'],546840,001,2024-10-08_16h34.40.152,3.0 search,2024.1.5,None,2024-10-08 16h34.49.704616 +0530,
46,0,46,0,79.43339710001601,,79.37849249999272,5,79.43339710001601,79.43339710001601,0.028576400014571846,80.8708741000155,[-0.26666666666666666],[0.09],[1],[0],[0],[1.463661299960222],['Target'],546840,001,2024-10-08_16h34.40.152,3.0 search,2024.1.5,None,2024-10-08 16h34.49.704616 +0530,
47,0,47,0,80.94747840001946,,80.88441419997253,5,80.94747840001946,80.94747840001946,0.048677399987354875,82.23397509998176,[0.2733333333333333],[0.24166666666666667],[1],[0],[0],[1.3023680999758653],['Target'],546840,001,2024-10-08_16h34.40.152,3.0 search,2024.1.5,None,2024-10-08 16h34.49.704616 +0530,
48,0,48,0,82.36231830000179,,82.25297019997379,5,82.36231830000179,82.36231830000179,0.07650540000759065,83.83495390001917,[-0.17],[0.041666666666666664],[1],[0],[0],[1.5075983999995515],['Target'],546840,001,2024-10-08_16h34.40.152,3.0 search,2024.1.5,None,2024-10-08 16h34.49.704616 +0530,
49,0,49,0,83.909742799995,,83.84409430000233,10,83.909742799995,83.909742799995,0.05208390002371743,85.1333169999998,[0.30833333333333335],[0.26166666666666666],[1],[0],[0],[1.238785800000187],['Target'],546840,001,2024-10-08_16h34.40.152,3.0 search,2024.1.5,None,2024-10-08 16h34.49.704616 +0530,
50,0,50,0,85.19101429998409,,85.14087220001966,5,85.19101429998409,85.19101429998409,0.030175200023222715,86.32136509998236,[-0.3],[0.125],[1],[0],[0],[1.151244999957271],['Target'],546840,001,2024-10-08_16h34.40.152,3.0 search,2024.1.5,None,2024-10-08 16h34.49.704616 +0530,
51,0,51,0,86.42220299999462,,86.33657109999331,5,86.42220299999462,86.42220299999462,0.06897019996540621,88.06268919998547,[0.3466666666666667],[-0.06],[1],[0],[0],[1.6603444999782369],['Target'],546840,001,2024-10-08_16h34.40.152,3.0 search,2024.1.5,None,2024-10-08 16h34.49.704616 +0530,
52,0,52,0,88.15293639997253,,88.07275200000731,10,88.15293639997253,88.15293639997253,0.056027500017080456,89.73076189996209,[0.28833333333333333],[-0.41333333333333333],[1],[0],[0],[1.602494899998419],['Target'],546840,001,2024-10-08_16h34.40.152,3.0 search,2024.1.5,None,2024-10-08 16h34.49.704616 +0530,
53,0,53,0,89.84985339996638,,89.74761009996291,10,89.84985339996638,89.84985339996638,0.08197659999132156,91.44162579998374,[0.465],[0.37166666666666665],[1],[0],[0],[1.6152379999984987],['Target'],546840,001,2024-10-08_16h34.40.152,3.0 search,2024.1.5,None,2024-10-08 16h34.49.704616 +0530,
54,0,54,0,91.51390069996705,,91.45058060000883,5,91.51390069996705,91.51390069996705,0.03970129997469485,92.83783949998906,[-0.43333333333333335],[0.05],[1],[0],[0],[1.3483982000034302],['Target'],546840,001,2024-10-08_16h34.40.152,3.0 search,2024.1.5,None,2024-10-08 16h34.49.704616 +0530,
55,0,55,0,92.91217159997905,,92.84862259996589,5,92.91217159997905,92.91217159997905,0.03703680000035092,94.48682310001459,[0.0033333333333333335],[-0.23833333333333334],[1],[0],[0],[1.6032589999958873],['Target'],546840,001,2024-10-08_16h34.40.152,3.0 search,2024.1.5,None,2024-10-08 16h34.49.704616 +0530,
56,0,56,0,94.57632910000393,,94.49949329998344,10,94.57632910000393,94.57632910000393,0.04742030001943931,96.06369109998923,[0.125],[0.20333333333333334],[1],[0],[0],[1.5177233000285923],['Target'],546840,001,2024-10-08_16h34.40.152,3.0 search,2024.1.5,None,2024-10-08 16h34.49.704616 +0530,
57,0,57,0,96.12488059996394,,96.06981020001695,5,96.12488059996394,96.12488059996394,0.03263410000363365,97.82913620001636,[0.22333333333333333],[0.3333333333333333],[1],[0],[0],[1.7274595000199042],['Target'],546840,001,2024-10-08_16h34.40.152,3.0 search,2024.1.5,None,2024-10-08 16h34.49.704616 +0530,
58,0,58,0,97.92019229999278,,97.83762349997414,10,97.92019229999278,97.92019229999278,0.06135719997109845,99.58996159996605,[0.185],[-0.18833333333333332],[1],[0],[0],[1.6924164000083692],['Target'],546840,001,2024-10-08_16h34.40.152,3.0 search,2024.1.5,None,2024-10-08 16h34.49.704616 +0530,
59,0,59,0,99.70100860000821,,99.60614719998557,10,99.70100860000821,99.70100860000821,0.06888029997935519,101.65386439999565,[0.09666666666666666],[0.4683333333333333],[1],[0],[0],[1.9805767000070773],['Target'],546840,001,2024-10-08_16h34.40.152,3.0 search,2024.1.5,None,2024-10-08 16h34.49.704616 +0530,
60,0,60,0,101.78125030000228,,101.6691017000121,10,101.78125030000228,101.78125030000228,0.08942119998391718,103.14801730000181,[0.33166666666666667],[-0.07166666666666667],[1],[0],[0],[1.3907553000026383],['Target'],546840,001,2024-10-08_16h34.40.152,3.0 search,2024.1.5,None,2024-10-08 16h34.49.704616 +0530,
61,0,61,0,103.21192929998506,,103.16198159998748,5,103.21192929998506,103.21192929998506,0.03774399997200817,105.32281189999776,[-0.07333333333333333],[0.45166666666666666],[1],[0],[0],[2.1244598000193946],['Target'],546840,001,2024-10-08_16h34.40.152,3.0 search,2024.1.5,None,2024-10-08 16h34.49.704616 +0530,
62,0,62,0,105.40878609998617,,105.33318690001033,10,105.40878609998617,105.40878609998617,0.05857029999606311,106.96482960000867,[0.021666666666666667],[-0.17166666666666666],[1],[0],[0],[1.573822200007271],['Target'],546840,001,2024-10-08_16h34.40.152,3.0 search,2024.1.5,None,2024-10-08 16h34.49.704616 +0530,
63,0,63,0,107.0396347999922,,106.97316469997168,5,107.0396347999922,107.0396347999922,0.03945780004141852,108.59777389996452,[-0.2683333333333333],[0.425],[1],[0],[0],[1.5866926000453532],['Target'],546840,001,2024-10-08_16h34.40.152,3.0 search,2024.1.5,None,2024-10-08 16h34.49.704616 +0530,
64,0,64,0,108.73654339998029,,108.60880290000932,10,108.73654339998029,108.73654339998029,0.0839383999700658,110.65865609998582,[-0.006666666666666667],[-0.06333333333333334],[1],[0],[0],[1.9672992000123486],['Target'],546840,001,2024-10-08_16h34.40.152,3.0 search,2024.1.5,None,2024-10-08 16h34.49.704616 +0530,
65,0,65,0,110.73354909999762,,110.66753689997131,5,110.73354909999762,110.73354909999762,0.038955000054556876,112.05742570001166,[-0.46166666666666667],[0.345],[1],[0],[0],[1.3525876000057906],['Target'],546840,001,2024-10-08_16h34.40.152,3.0 search,2024.1.5,None,2024-10-08 16h34.49.704616 +0530,
66,0,66,0,112.13271939998958,,112.06764680001652,5,112.13271939998958,112.13271939998958,0.04366450000088662,115.51896259997739,[-0.016666666666666666],[-0.021666666666666667],[1],[0],[0],[3.409391900000628],['Target'],546840,001,2024-10-08_16h34.40.152,3.0 search,2024.1.5,None,2024-10-08 16h34.49.704616 +0530,
67,0,67,0,115.59264819999225,,115.52957600000082,5,115.59264819999225,115.59264819999225,0.04131030000280589,117.34836629999336,[0.023333333333333334],[-0.48333333333333334],[1],[0],[0],[1.7785141000058502],['Target'],546840,001,2024-10-08_16h34.40.152,3.0 search,2024.1.5,None,2024-10-08 16h34.49.704616 +0530,
68,0,68,0,117.47252969996771,,117.36113659996772,10,117.47252969996771,117.47252969996771,0.08565650001401082,120.03564949997235,[-0.48833333333333334],[-0.105],[1],[0],[0],[2.589975400012918],['Target'],546840,001,2024-10-08_16h34.40.152,3.0 search,2024.1.5,None,2024-10-08 16h34.49.704616 +0530,
69,0,69,0,120.15162969997618,,120.05245929997182,10,120.15162969997618,120.15162969997618,0.07891539996489882,122.1086766999797,[0.315],[0.48833333333333334],[1],[0],[0],[1.9806716999737546],['Target'],546840,001,2024-10-08_16h34.40.152,3.0 search,2024.1.5,None,2024-10-08 16h34.49.704616 +0530,
70,0,70,0,122.19877000001725,,122.11991959996521,5,122.19877000001725,122.19877000001725,0.04154870001366362,123.90594809997128,[0.4866666666666667],[0.355],[1],[0],[0],[1.7453156000119634],['Target'],546840,001,2024-10-08_16h34.40.152,3.0 search,2024.1.5,None,2024-10-08 16h34.49.704616 +0530,
71,0,71,0,123.9788358999649,,123.91642029996729,5,123.9788358999649,123.9788358999649,0.038814299972727895,125.45396159996744,[0.25],[-0.185],[1],[0],[0],[1.4996249999967404],['Target'],546840,001,2024-10-08_16h34.40.152,3.0 search,2024.1.5,None,2024-10-08 16h34.49.704616 +0530,
72,0,72,0,125.5596196000115,,125.46618099999614,10,125.5596196000115,125.5596196000115,0.06432270002551377,127.04373109998414,[0.06833333333333333],[-0.3233333333333333],[1],[0],[0],[1.513223799993284],['Target'],546840,001,2024-10-08_16h34.40.152,3.0 search,2024.1.5,None,2024-10-08 16h34.49.704616 +0530,
73,0,73,0,127.12354100000812,,127.06004889996257,5,127.12354100000812,127.12354100000812,0.04821249999804422,129.61169699998572,[-0.20833333333333334],[-0.45666666666666667],[1],[0],[0],[2.507620099990163],['Target'],546840,001,2024-10-08_16h34.40.152,3.0 search,2024.1.5,None,2024-10-08 16h34.49.704616 +0530,
74,0,74,0,129.66940099996282,,129.62046950001968,5,129.66940099996282,129.66940099996282,0.03797479998320341,131.17868219997035,[-0.01],[0.30666666666666664],[1],[0],[0],[1.5224140000063926],[],546840,001,2024-10-08_16h34.40.152,3.0 search,2024.1.5,None,2024-10-08 16h34.49.704616 +0530,
75,0,75,0,131.26710319996346,,131.18959319998976,10,131.26710319996346,131.26710319996346,0.0586963000241667,132.67633629997727,[-0.24166666666666667],[-0.2683333333333333],[1],[0],[0],[1.429676899977494],['Target'],546840,001,2024-10-08_16h34.40.152,3.0 search,2024.1.5,None,2024-10-08 16h34.49.704616 +0530,
76,0,76,0,132.7813780999859,,132.6908822999685,5,132.7813780999859,132.7813780999859,0.07742460002191365,134.69220819999464,[0.35833333333333334],[-0.06166666666666667],[1],[0],[0],[1.9258102999883704],['Target'],546840,001,2024-10-08_16h34.40.152,3.0 search,2024.1.5,None,2024-10-08 16h34.49.704616 +0530,
77,0,77,0,134.7786281000008,,134.70536610001,5,134.7786281000008,134.7786281000008,0.04270260001067072,136.09037160000298,[-0.11333333333333333],[-0.27666666666666667],[1],[0],[0],[1.3432305000023916],['Target'],546840,001,2024-10-08_16h34.40.152,3.0 search,2024.1.5,None,2024-10-08 16h34.49.704616 +0530,
78,0,78,0,136.1925601999974,,136.10577520000516,5,136.1925601999974,136.1925601999974,0.0626918000052683,137.95170259999577,[0.07666666666666666],[-0.3933333333333333],[1],[0],[0],[1.785198199970182],['Target'],546840,001,2024-10-08_16h34.40.152,3.0 search,2024.1.5,None,2024-10-08 16h34.49.704616 +0530,
79,0,79,0,138.03979120001895,,137.962251799996,10,138.03979120001895,138.03979120001895,0.05235810001613572,139.61130049999338,[0.14666666666666667],[0.25666666666666665],[1],[0],[0],[1.597865300020203],['Target'],546840,001,2024-10-08_16h34.40.152,3.0 search,2024.1.5,None,2024-10-08 16h34.49.704616 +0530,
80,0,80,0,139.7204497999628,,139.61758560000453,10,139.7204497999628,139.7204497999628,0.06525560002774,141.03846409998368,[-0.041666666666666664],[0.26166666666666666],[1],[0],[0],[1.355248300009407],['Target'],546840,001,2024-10-08_16h34.40.152,3.0 search,2024.1.5,None,2024-10-08 16h34.49.704616 +0530,
81,0,81,0,141.1179548999644,,141.0542314000195,5,141.1179548999644,141.1179548999644,0.036620099970605224,142.24759129999438,[-0.29],[0.065],[1],[0],[0],[1.157411599997431],['Target'],546840,001,2024-10-08_16h34.40.152,3.0 search,2024.1.5,None,2024-10-08 16h34.49.704616 +0530,
82,0,82,0,142.31580149999354,,142.26543470000615,5,142.31580149999354,142.31580149999354,0.04089240002213046,144.03898389998358,[0.3333333333333333],[-0.10666666666666667],[1],[0],[0],[1.735875899961684],['Target'],546840,001,2024-10-08_16h34.40.152,3.0 search,2024.1.5,None,2024-10-08 16h34.49.704616 +0530,
83,0,83,0,144.11368349997792,,144.0486922999844,5,144.11368349997792,144.11368349997792,0.04360229999292642,145.28704500000458,[0.021666666666666667],[-0.11333333333333333],[1],[0],[0],[1.195818500011228],['Target'],546840,001,2024-10-08_16h34.40.152,3.0 search,2024.1.5,None,2024-10-08 16h34.49.704616 +0530,
84,0,84,0,145.37765109998873,,145.29638670000713,10,145.37765109998873,145.37765109998873,0.061102000006940216,146.81748879997758,[0.24666666666666667],[0.43166666666666664],[1],[0],[0],[1.4618248000042513],['Target'],546840,001,2024-10-08_16h34.40.152,3.0 search,2024.1.5,None,2024-10-08 16h34.49.704616 +0530,
85,0,85,0,146.89199839998037,,146.82784109999193,5,146.89199839998037,146.89199839998037,0.04092759999912232,148.19918039999902,[-0.15166666666666667],[-0.11833333333333333],[1],[0],[0],[1.3321449999930337],['Target'],546840,001,2024-10-08_16h34.40.152,3.0 search,2024.1.5,None,2024-10-08 16h34.49.704616 +0530,
86,0,86,0,148.27331479999702,,148.2103044000105,5,148.27331479999702,148.27331479999702,0.03938229999039322,149.48367350001354,[-0.49],[0.2816666666666667],[1],[0],[0],[1.2348640999989584],['Target'],546840,001,2024-10-08_16h34.40.152,3.0 search,2024.1.5,None,2024-10-08 16h34.49.704616 +0530,
87,0,87,0,149.57070929999463,,149.49397830001544,10,149.57070929999463,149.57070929999463,0.06429509998997673,152.07887699996354,[0.345],[-0.34833333333333333],[1],[0],[0],[2.521302499982994],['Target'],546840,001,2024-10-08_16h34.40.152,3.0 search,2024.1.5,None,2024-10-08 16h34.49.704616 +0530,
88,0,88,0,152.18332949996693,,152.09180870000273,5,152.18332949996693,152.18332949996693,0.053655399999115616,153.74108710000291,[-0.4533333333333333],[0.42],[1],[0],[0],[1.5975285000167787],['Target'],546840,001,2024-10-08_16h34.40.152,3.0 search,2024.1.5,None,2024-10-08 16h34.49.704616 +0530,
89,0,89,0,153.7979932000162,,153.75036890001502,5,153.7979932000162,153.7979932000162,0.032880599959753454,155.20734779996565,[0.4033333333333333],[0.14166666666666666],[1],[0],[0],[1.425577699963469],['Target'],546840,001,2024-10-08_16h34.40.152,3.0 search,2024.1.5,None,2024-10-08 16h34.49.704616 +0530,
90,0,90,0,155.27873889997136,,155.21972960000858,5,155.27873889997136,155.27873889997136,0.03789320000214502,156.66890619997866,[0.21166666666666667],[0.225],[1],[0],[0],[1.4123127000057139],['Target'],546840,001,2024-10-08_16h34.40.152,3.0 search,2024.1.5,None,2024-10-08 16h34.49.704616 +0530,
91,0,91,0,156.75985739997122,,156.6816220000037,10,156.75985739997122,156.75985739997122,0.05532029998721555,158.85891969996737,[-0.4266666666666667],[-0.35833333333333334],[1],[0],[0],[2.123237900028471],['Target'],546840,001,2024-10-08_16h34.40.152,3.0 search,2024.1.5,None,2024-10-08 16h34.49.704616 +0530,
92,0,92,0,158.93949409999186,,158.87358750001295,5,158.93949409999186,158.93949409999186,0.04759239999111742,160.68404309998732,[0.11666666666666667],[0.455],[1],[0],[0],[1.7655500000109896],['Target'],546840,001,2024-10-08_16h34.40.152,3.0 search,2024.1.5,None,2024-10-08 16h34.49.704616 +0530,
93,0,93,0,160.76993369997945,,160.6938798999763,10,160.76993369997945,160.76993369997945,0.05272149998927489,167.56528949999483,[0.2],[-0.47333333333333333],[1],[0],[0],[6.819824400008656],['Target'],546840,001,2024-10-08_16h34.40.152,3.0 search,2024.1.5,None,2024-10-08 16h34.49.704616 +0530,
94,0,94,0,167.64195730001666,,167.5714650999871,10,167.64195730001666,167.64195730001666,0.04981480003334582,170.01477209996665,[-0.47],[-0.3283333333333333],[1],[0],[0],[2.394012800010387],[],546840,001,2024-10-08_16h34.40.152,3.0 search,2024.1.5,None,2024-10-08 16h34.49.704616 +0530,
95,0,95,0,170.0884214999969,,170.02665169996908,5,170.0884214999969,170.0884214999969,0.03988910000771284,171.6471060999902,[0.22333333333333333],[0.45666666666666667],[1],[0],[0],[1.5817161000450142],['Target'],546840,001,2024-10-08_16h34.40.152,3.0 search,2024.1.5,None,2024-10-08 16h34.49.704616 +0530,
96,0,96,0,171.72011110000312,,171.65928749996237,5,171.72011110000312,171.72011110000312,0.03419980005128309,172.993599599984,[0.09666666666666666],[-0.125],[1],[0],[0],[1.3018429999938235],[],546840,001,2024-10-08_16h34.40.152,3.0 search,2024.1.5,None,2024-10-08 16h34.49.704616 +0530,
97,0,97,0,173.0502322000102,,173.00425609998638,5,173.0502322000102,173.0502322000102,0.03414299996802583,174.35760310001206,[0.315],[0.37833333333333335],[1],[0],[0],[1.3196963000227697],['Target'],546840,001,2024-10-08_16h34.40.152,3.0 search,2024.1.5,None,2024-10-08 16h34.49.704616 +0530,
98,0,98,0,174.43112480000127,,174.36984659999143,5,174.43112480000127,174.43112480000127,0.04231739998795092,175.80501119996188,[0.08],[-0.18],[1],[0],[0],[1.3946013000095263],['Target'],546840,001,2024-10-08_16h34.40.152,3.0 search,2024.1.5,None,2024-10-08 16h34.49.704616 +0530,
99,0,99,0,175.89562470000237,,175.81425090000266,10,175.89562470000237,175.89562470000237,0.05772890005027875,177.2016042000032,[-0.27666666666666667],[-0.018333333333333333],[1],[0],[0],[1.3316874000011012],['Target'],546840,001,2024-10-08_16h34.40.152,3.0 search,2024.1.5,None,2024-10-08 16h34.49.704616 +0530,
100,0,100,0,177.29341099999147,,177.2082315000007,10,177.29341099999147,177.29341099999147,0.06264030002057552,178.56563969998388,[0.295],[0.11],[1],[0],[0],[1.295752200006973],['Target'],546840,001,2024-10-08_16h34.40.152,3.0 search,2024.1.5,None,2024-10-08 16h34.49.704616 +0530,
101,0,101,0,178.65766979998443,,178.57275469996966,10,178.65766979998443,178.65766979998443,0.05553739995229989,180.79463010001928,[-0.43833333333333335],[-0.4033333333333333],[1],[0],[0],[2.1673824999597855],['Target'],546840,001,2024-10-08_16h34.40.152,3.0 search,2024.1.5,None,2024-10-08 16h34.49.704616 +0530,
102,0,102,0,180.8710308999871,,180.80124469997827,10,180.8710308999871,180.8710308999871,0.049983999982941896,182.3263661999954,[0.14833333333333334],[0.25666666666666665],[1],[0],[0],[1.4761258999933489],['Target'],546840,001,2024-10-08_16h34.40.152,3.0 search,2024.1.5,None,2024-10-08 16h34.49.704616 +0530,
103,0,103,0,182.43518759997096,,182.33362749998923,10,182.43518759997096,182.43518759997096,0.0725158000132069,183.92453899997054,[-0.2733333333333333],[0.09],[1],[0],[0],[1.519342500017956],['Target'],546840,001,2024-10-08_16h34.40.152,3.0 search,2024.1.5,None,2024-10-08 16h34.49.704616 +0530,
104,0,104,0,183.98308659996837,,183.93381119996775,5,183.98308659996837,183.98308659996837,0.033120399981271476,185.4518953000079,[-0.07333333333333333],[-0.32],[1],[0],[0],[1.4867556000244804],['Target'],546840,001,2024-10-08_16h34.40.152,3.0 search,2024.1.5,None,2024-10-08 16h34.49.704616 +0530,
105,0,105,0,185.54674680001335,,185.4671476999647,10,185.54674680001335,185.54674680001335,0.06721579999430105,187.57466649997514,[-0.255],[0.26166666666666666],[1],[0],[0],[2.042231699975673],['Target'],546840,001,2024-10-08_16h34.40.152,3.0 search,2024.1.5,None,2024-10-08 16h34.49.704616 +0530,
106,0,106,0,187.66053910000483,,187.59193589998176,5,187.66053910000483,187.66053910000483,0.04938500002026558,189.79952649999177,[0.36333333333333334],[-0.325],[1],[0],[0],[2.161663700011559],['Target'],546840,001,2024-10-08_16h34.40.152,3.0 search,2024.1.5,None,2024-10-08 16h34.49.704616 +0530,
107,0,107,0,189.87337230000412,,189.80933259997983,10,189.87337230000412,189.87337230000412,0.04877779999515042,191.31444039999042,[-0.415],[-0.28833333333333333],[1],[0],[0],[1.4571488000219688],['Target'],546840,001,2024-10-08_16h34.40.152,3.0 search,2024.1.5,None,2024-10-08 16h34.49.704616 +0530,
108,0,108,0,191.38741359999403,,191.32669469999382,5,191.38741359999403,191.38741359999403,0.042728599975816905,193.31050929997582,[0.18],[-0.485],[1],[0],[0],[1.9419851999846287],['Target'],546840,001,2024-10-08_16h34.40.152,3.0 search,2024.1.5,None,2024-10-08 16h34.49.704616 +0530,
109,0,109,0,193.3843228999758,,193.32423189998372,5,193.3843228999758,193.3843228999758,0.04301369999302551,195.20815239998046,[-0.055],[0.4683333333333333],[1],[0],[0],[1.8439852999872528],['Target'],546840,001,2024-10-08_16h34.40.152,3.0 search,2024.1.5,None,2024-10-08 16h34.49.704616 +0530,
110,0,110,0,195.29847089998657,,195.2189468999859,5,195.29847089998657,195.29847089998657,0.043760200031101704,196.68735550000565,[0.35833333333333334],[-0.03333333333333333],[1],[0],[0],[1.4254994000075385],['Target'],546840,001,2024-10-08_16h34.40.152,3.0 search,2024.1.5,None,2024-10-08 16h34.49.704616 +0530,
111,0,111,0,196.76272270001937,,196.6961649999721,5,196.76272270001937,196.76272270001937,0.04269549995660782,198.5539187999675,[0.3466666666666667],[0.395],[1],[0],[0],[1.8169378999737091],['Target'],546840,001,2024-10-08_16h34.40.152,3.0 search,2024.1.5,None,2024-10-08 16h34.49.704616 +0530,
112,0,112,0,198.64260159997502,,198.56323029997293,10,198.64260159997502,198.64260159997502,0.05200910003622994,200.28150400001323,[-0.10666666666666667],[-0.0016666666666666668],[1],[0],[0],[1.66728900000453],['Target'],546840,001,2024-10-08_16h34.40.152,3.0 search,2024.1.5,None,2024-10-08 16h34.49.704616 +0530,
113,0,113,0,200.3902800999931,,200.28802779997932,10,200.3902800999931,200.3902800999931,0.0646981000318192,201.69006769999396,[-0.3933333333333333],[0.36],[1],[0],[0],[1.3369864000123926],['Target'],546840,001,2024-10-08_16h34.40.152,3.0 search,2024.1.5,None,2024-10-08 16h34.49.704616 +0530,
114,0,114,0,201.8207843999844,,201.70487289997982,10,201.8207843999844,201.8207843999844,0.0858760999981314,203.8040279999841,[0.13333333333333333],[-0.2733333333333333],[1],[0],[0],[2.014960600004997],['Target'],546840,001,2024-10-08_16h34.40.152,3.0 search,2024.1.5,None,2024-10-08 16h34.49.704616 +0530,
115,0,115,0,203.9005460999906,,203.8205342000001,5,203.9005460999906,203.9005460999906,0.06614400004036725,205.7081279999693,[0.4633333333333333],[-0.3433333333333333],[1],[0],[0],[1.825993100006599],['Target'],546840,001,2024-10-08_16h34.40.152,3.0 search,2024.1.5,None,2024-10-08 16h34.49.704616 +0530,
116,0,116,0,205.79748329997528,,205.71752639999613,10,205.79748329997528,205.79748329997528,0.06222170003456995,207.62927219999256,[-0.30333333333333334],[-0.225],[1],[0],[0],[1.8498090999783017],['Target'],546840,001,2024-10-08_16h34.40.152,3.0 search,2024.1.5,None,2024-10-08 16h34.49.704616 +0530,
117,0,117,0,207.71120829996653,,207.64519269997254,5,207.71120829996653,207.71120829996653,0.044668300019111484,208.80032859998755,[-0.09333333333333334],[-0.25166666666666665],[1],[0],[0],[1.1126228999928571],['Target'],546840,001,2024-10-08_16h34.40.152,3.0 search,2024.1.5,None,2024-10-08 16h34.49.704616 +0530,
118,0,118,0,208.9424894999829,,208.81756850000238,10,208.9424894999829,208.9424894999829,0.10042580001754686,211.65242509997915,[0.3233333333333333],[0.10333333333333333],[1],[0],[0],[2.737699599994812],['Target'],546840,001,2024-10-08_16h34.40.152,3.0 search,2024.1.5,None,2024-10-08 16h34.49.704616 +0530,
119,0,119,0,211.75476949999575,,211.67122449999442,5,211.75476949999575,211.75476949999575,0.05640900001162663,213.09693870000774,[0.48833333333333334],[-0.07166666666666667],[1],[0],[0],[1.3725379999959841],['Target'],546840,001,2024-10-08_16h34.40.152,3.0 search,2024.1.5,None,2024-10-08 16h34.49.704616 +0530,
120,0,120,0,213.18675009999424,,213.10876059997827,10,213.18675009999424,213.18675009999424,0.056558199983555824,214.510984499997,[-0.45],[0.02666666666666667],[1],[0],[0],[1.3463982000248507],['Target'],546840,001,2024-10-08_16h34.40.152,3.0 search,2024.1.5,None,2024-10-08 16h34.49.704616 +0530,
121,0,121,0,214.60046250000596,,214.522652500018,10,214.60046250000596,214.60046250000596,0.05241669999668375,216.10784509999212,[0.06666666666666667],[0.165],[1],[0],[0],[1.5337210000143386],['Target'],546840,001,2024-10-08_16h34.40.152,3.0 search,2024.1.5,None,2024-10-08 16h34.49.704616 +0530,
122,0,122,0,216.18184360000305,,216.11792370001785,5,216.18184360000305,216.18184360000305,0.03990430000703782,217.6218799999915,[0.45166666666666666],[0.145],[1],[0],[0],[1.4656830999883823],['Target'],546840,001,2024-10-08_16h34.40.152,3.0 search,2024.1.5,None,2024-10-08 16h34.49.704616 +0530,
123,0,123,0,217.71204750001198,,217.63093370001297,10,217.71204750001198,217.71204750001198,0.06066780001856387,219.7015099999844,[-0.405],[-0.14],[1],[0],[0],[2.010644300025888],['Target'],546840,001,2024-10-08_16h34.40.152,3.0 search,2024.1.5,None,2024-10-08 16h34.49.704616 +0530,
124,0,124,0,219.7754979999736,,219.71164910000516,5,219.7754979999736,219.7754979999736,0.03718490002211183,221.17387870000675,[0.065],[0.4866666666666667],[1],[0],[0],[1.4261304999818094],['Target'],546840,001,2024-10-08_16h34.40.152,3.0 search,2024.1.5,None,2024-10-08 16h34.49.704616 +0530,
125,0,125,0,221.2565913000144,,221.18523629999254,5,221.2565913000144,221.2565913000144,0.04570750001585111,222.72896979999496,[-0.495],[0.3233333333333333],[1],[0],[0],[1.4994770999765024],['Target'],546840,001,2024-10-08_16h34.40.152,3.0 search,2024.1.5,None,2024-10-08 16h34.49.704616 +0530,
126,0,126,0,222.78700579999713,,222.73990340001183,5,222.78700579999713,222.78700579999713,0.03902720002224669,224.16276979999384,[-0.265],[0.31666666666666665],[1],[0],[0],[1.3862470999592915],['Target'],546840,001,2024-10-08_16h34.40.152,3.0 search,2024.1.5,None,2024-10-08 16h34.49.704616 +0530,
127,0,127,0,224.2515379000106,,224.1737613999867,10,224.2515379000106,224.2515379000106,0.05861680000089109,225.49127479997696,[-0.1],[-0.06],[1],[0],[0],[1.2599835000000894],[],546840,001,2024-10-08_16h34.40.152,3.0 search,2024.1.5,None,2024-10-08 16h34.49.704616 +0530,
128,0,128,0,225.58312680001836,,225.49849149998045,10,225.58312680001836,225.58312680001836,0.05388479999965057,226.74262949998956,[0.01],[0.255],[1],[0],[0],[1.1913080000085756],['Target'],546840,001,2024-10-08_16h34.40.152,3.0 search,2024.1.5,None,2024-10-08 16h34.49.704616 +0530,
129,0,129,0,226.8136352999718,,226.75698959996225,5,226.8136352999718,226.8136352999718,0.04419640003470704,228.0872269999818,[0.016666666666666666],[0.23833333333333334],[1],[0],[0],[1.2887782000470906],['Target'],546840,001,2024-10-08_16h34.40.152,3.0 search,2024.1.5,None,2024-10-08 16h34.49.704616 +0530,
130,0,130,0,228.1784028999973,,228.0990375999827,10,228.1784028999973,228.1784028999973,0.06240659998729825,229.96488350001164,[-0.08333333333333333],[-0.4166666666666667],[1],[0],[0],[1.8041831000009552],['Target'],546840,001,2024-10-08_16h34.40.152,3.0 search,2024.1.5,None,2024-10-08 16h34.49.704616 +0530,
131,0,131,0,230.09231579996413,,229.9860270000063,10,230.09231579996413,230.09231579996413,0.08573549997527152,231.39383249997627,[0.011666666666666667],[-0.2816666666666667],[1],[0],[0],[1.3236192999756895],[],546840,001,2024-10-08_16h34.40.152,3.0 search,2024.1.5,None,2024-10-08 16h34.49.704616 +0530,
132,0,132,0,231.47315520001575,,231.40943589998642,5,231.47315520001575,231.47315520001575,0.0438830999773927,233.0513428999693,[-0.3933333333333333],[0.21666666666666667],[1],[0],[0],[1.6001322999945842],['Target'],546840,001,2024-10-08_16h34.40.152,3.0 search,2024.1.5,None,2024-10-08 16h34.49.704616 +0530,
133,0,133,0,233.13747299998067,,233.05968800000846,10,233.13747299998067,233.13747299998067,0.05310840002493933,234.82676339999307,[-0.22],[0.11833333333333333],[1],[0],[0],[1.714788400044199],['Target'],546840,001,2024-10-08_16h34.40.152,3.0 search,2024.1.5,None,2024-10-08 16h34.49.704616 +0530,
134,0,134,0,234.95088839996606,,234.83600999996997,10,234.95088839996606,234.95088839996606,0.0798445999971591,236.98895229998743,[0.3516666666666667],[0.29],[1],[0],[0],[2.0754021999891847],['Target'],546840,001,2024-10-08_16h34.40.152,3.0 search,2024.1.5,None,2024-10-08 16h34.49.704616 +0530,
135,0,135,0,237.16409879998537,,236.9954714999767,10,237.16409879998537,237.16409879998537,0.14574659999925643,239.23743450001348,[0.3566666666666667],[0.46],[1],[0],[0],[2.097170799970627],['Target'],546840,001,2024-10-08_16h34.40.152,3.0 search,2024.1.5,None,2024-10-08 16h34.49.704616 +0530,
136,0,136,0,239.32768280000892,,239.2519406999927,5,239.32768280000892,239.32768280000892,0.051917900040280074,241.53323539998382,[-0.03666666666666667],[-0.3233333333333333],[1],[0],[0],[2.231653099996038],['Target'],546840,001,2024-10-08_16h34.40.152,3.0 search,2024.1.5,None,2024-10-08 16h34.49.704616 +0530,
137,0,137,0,241.64040129998466,,241.54457769996952,10,241.64040129998466,241.64040129998466,0.07580290001351386,243.17857839999488,[-0.13666666666666666],[0.19666666666666666],[1],[0],[0],[1.5594204000080936],['Target'],546840,001,2024-10-08_16h34.40.152,3.0 search,2024.1.5,None,2024-10-08 16h34.49.704616 +0530,
138,0,138,0,243.27111869998043,,243.1855706999777,10,243.27111869998043,243.27111869998043,0.058515500044450164,244.85875810001744,[-0.325],[-0.22166666666666668],[1],[0],[0],[1.615657199989073],['Target'],546840,001,2024-10-08_16h34.40.152,3.0 search,2024.1.5,None,2024-10-08 16h34.49.704616 +0530,
139,0,139,0,244.95176079997327,,244.86585599998944,10,244.95176079997327,244.95176079997327,0.05775109998648986,246.54979530000128,[-0.18166666666666667],[0.12333333333333334],[1],[0],[0],[1.6271346000139602],['Target'],546840,001,2024-10-08_16h34.40.152,3.0 search,2024.1.5,None,2024-10-08 16h34.49.704616 +0530,
140,0,140,0,246.63241079996806,,246.5619915999705,5,246.63241079996806,246.63241079996806,0.04609740001615137,248.4232694999664,[-0.08166666666666667],[-0.36],[1],[0],[0],[1.8166611000197008],['Target'],546840,001,2024-10-08_16h34.40.152,3.0 search,2024.1.5,None,2024-10-08 16h34.49.704616 +0530,
141,0,141,0,248.5293106000172,,248.43545300001279,10,248.5293106000172,248.5293106000172,0.06507600005716085,250.0275149999652,[-0.03666666666666667],[-0.155],[1],[0],[0],[1.5279604999814183],['Target'],546840,001,2024-10-08_16h34.40.152,3.0 search,2024.1.5,None,2024-10-08 16h34.49.704616 +0530,
142,0,142,0,250.1267443000106,,250.04856299998937,5,250.1267443000106,250.1267443000106,0.05423300003167242,251.8004109999747,[0.14166666666666666],[-0.3933333333333333],[1],[0],[0],[1.699373600014951],['Target'],546840,001,2024-10-08_16h34.40.152,3.0 search,2024.1.5,None,2024-10-08 16h34.49.704616 +0530,
143,0,143,0,251.9071275999886,,251.81286130001536,10,251.9071275999886,251.9071275999886,0.06465020001633093,253.39471769996453,[0.40166666666666667],[-0.11333333333333333],[1],[0],[0],[1.5182957999641076],['Target'],546840,001,2024-10-08_16h34.40.152,3.0 search,2024.1.5,None,2024-10-08 16h34.49.704616 +0530,
144,0,144,0,253.48825789999682,,253.40880719997222,5,253.48825789999682,253.48825789999682,0.05195409996667877,254.9459758999874,[0.225],[0.21166666666666667],[1],[0],[0],[1.487369500042405],['Target'],546840,001,2024-10-08_16h34.40.152,3.0 search,2024.1.5,None,2024-10-08 16h34.49.704616 +0530,
145,0,145,0,255.01946229999885,,254.95582729997113,5,255.01946229999885,255.01946229999885,0.041414399980567396,256.4284819000168,[-0.225],[0.006666666666666667],[1],[0],[0],[1.4328470000182278],['Target'],546840,001,2024-10-08_16h34.40.152,3.0 search,2024.1.5,None,2024-10-08 16h34.49.704616 +0530,
146,0,146,0,256.4999125999748,,256.44014789996436,5,256.4999125999748,256.4999125999748,0.035344299976713955,257.75793029996566,[0.245],[0.25833333333333336],[1],[0],[0],[1.2835322999744676],['Target'],546840,001,2024-10-08_16h34.40.152,3.0 search,2024.1.5,None,2024-10-08 16h34.49.704616 +0530,
147,0,147,0,257.8142148000188,,257.7692275000154,5,257.8142148000188,257.8142148000188,0.025597400031983852,259.2880154000013,[-0.035],[0.14],[1],[0],[0],[1.4944158000289463],['Target'],546840,001,2024-10-08_16h34.40.152,3.0 search,2024.1.5,None,2024-10-08 16h34.49.704616 +0530,
148,0,148,0,259.3786084000021,,259.29833670001244,10,259.3786084000021,259.3786084000021,0.06314879999263212,261.3996734999819,[-0.09],[-0.008333333333333333],[1],[0],[0],[2.0393238999531604],['Target'],546840,001,2024-10-08_16h34.40.152,3.0 search,2024.1.5,None,2024-10-08 16h34.49.704616 +0530,
149,0,149,0,261.45844690001104,,261.40716679999605,5,261.45844690001104,261.45844690001104,0.03364879998844117,263.2486273999675,[-0.46],[-0.11833333333333333],[1],[0],[0],[1.8090886999852955],['Target'],546840,001,2024-10-08_16h34.40.152,3.0 search,2024.1.5,None,2024-10-08 16h34.49.704616 +0530,
150,0,150,0,263.3393914999906,,263.25765509996563,5,263.3393914999906,263.3393914999906,0.043237100006081164,264.64851829997497,[-0.06666666666666667],[0.235],[1],[0],[0],[1.3490784000023268],['Target'],546840,001,2024-10-08_16h34.40.152,3.0 search,2024.1.5,None,2024-10-08 16h34.49.704616 +0530,
151,0,151,0,264.7365410999628,,264.66115870000795,10,264.7365410999628,264.7365410999628,0.047725000011269,266.76702169998316,[-0.2683333333333333],[0.37666666666666665],[1],[0],[0],[2.058656200009864],['Target'],546840,001,2024-10-08_16h34.40.152,3.0 search,2024.1.5,None,2024-10-08 16h34.49.704616 +0530,
152,0,152,0,266.86639019998256,,266.7832816999871,10,266.86639019998256,266.86639019998256,0.0648462999961339,268.82501009997213,[0.02],[-0.47833333333333333],[1],[0],[0],[1.980046599986963],['Target'],546840,001,2024-10-08_16h34.40.152,3.0 search,2024.1.5,None,2024-10-08 16h34.49.704616 +0530,
153,0,153,0,268.91330119996564,,268.8344028000138,10,268.91330119996564,268.91330119996564,0.05713949998607859,270.7681192000164,[-0.43833333333333335],[-0.17666666666666667],[1],[0],[0],[1.8770929000456817],['Target'],546840,001,2024-10-08_16h34.40.152,3.0 search,2024.1.5,None,2024-10-08 16h34.49.704616 +0530,
154,0,154,0,270.91003450000426,,270.784940499987,10,270.91003450000426,270.91003450000426,0.08858239999972284,272.83412780001527,[-0.13166666666666665],[-0.32166666666666666],[1],[0],[0],[1.9629115000134334],['Target'],546840,001,2024-10-08_16h34.40.152,3.0 search,2024.1.5,None,2024-10-08 16h34.49.704616 +0530,
155,0,155,0,272.94015099998796,,272.84251879999647,10,272.94015099998796,272.94015099998796,0.0681775999837555,275.921677300008,[-0.24166666666666667],[0.485],[1],[0],[0],[3.0112644000328146],['Target'],546840,001,2024-10-08_16h34.40.152,3.0 search,2024.1.5,None,2024-10-08 16h34.49.704616 +0530,
156,0,156,0,276.0518041999894,,275.93750250001904,10,276.0518041999894,276.0518041999894,0.09352300001773983,278.800292800006,[0.07333333333333333],[0.37333333333333335],[1],[0],[0],[2.770835400035139],['Target'],546840,001,2024-10-08_16h34.40.152,3.0 search,2024.1.5,None,2024-10-08 16h34.49.704616 +0530,
157,0,157,0,278.9139339000103,,278.81587469996884,10,278.9139339000103,278.9139339000103,0.0737018000218086,280.7366649999749,[0.08833333333333333],[-0.39166666666666666],[1],[0],[0],[1.8496199999935925],['Target'],546840,001,2024-10-08_16h34.40.152,3.0 search,2024.1.5,None,2024-10-08 16h34.49.704616 +0530,
158,0,158,0,280.8274164000177,,280.74671119998675,10,280.8274164000177,280.8274164000177,0.06190590001642704,282.6977703999728,[0.25166666666666665],[-0.2916666666666667],[1],[0],[0],[1.890186199976597],['Target'],546840,001,2024-10-08_16h34.40.152,3.0 search,2024.1.5,None,2024-10-08 16h34.49.704616 +0530,
159,0,159,0,282.79128770000534,,282.7125578999985,10,282.79128770000534,282.79128770000534,0.05284459999529645,284.4460878999671,[-0.3933333333333333],[-0.12333333333333334],[1],[0],[0],[1.6825057999812998],['Target'],546840,001,2024-10-08_16h34.40.152,3.0 search,2024.1.5,None,2024-10-08 16h34.49.704616 +0530,
160,0,160,0,284.50501399999484,,284.4532118999632,5,284.50501399999484,284.50501399999484,0.0333091999636963,286.129434500006,[-0.023333333333333334],[-0.3983333333333333],[1],[0],[0],[1.6443519999738783],['Target'],546840,001,2024-10-08_16h34.40.152,3.0 search,2024.1.5,None,2024-10-08 16h34.49.704616 +0530,
161,0,161,0,286.2027570999926,,286.1388570999843,5,286.2027570999926,286.2027570999926,0.04073389997938648,288.23242249997566,[-0.47333333333333333],[-0.125],[1],[0],[0],[2.053300700034015],['Target'],546840,001,2024-10-08_16h34.40.152,3.0 search,2024.1.5,None,2024-10-08 16h34.49.704616 +0530,
162,0,162,0,288.33220960001927,,288.2505098999827,10,288.33220960001927,288.33220960001927,0.06505219999235123,290.00573629996506,[0.48333333333333334],[0.2916666666666667],[1],[0],[0],[1.6924500999739394],['Target'],546840,001,2024-10-08_16h34.40.152,3.0 search,2024.1.5,None,2024-10-08 16h34.49.704616 +0530,
163,0,163,0,290.1126463999972,,290.01729519997025,10,290.1126463999972,290.1126463999972,0.07519350002985448,292.1512846999685,[0.075],[-0.11666666666666667],[1],[0],[0],[2.0604417999857105],['Target'],546840,001,2024-10-08_16h34.40.152,3.0 search,2024.1.5,None,2024-10-08 16h34.49.704616 +0530,
164,0,164,0,292.20924940000987,,292.16037140000844,5,292.20924940000987,292.20924940000987,0.037866400030907243,293.6964915000135,[-0.46],[0.011666666666666667],[1],[0],[0],[1.4995188000029884],['Target'],546840,001,2024-10-08_16h34.40.152,3.0 search,2024.1.5,None,2024-10-08 16h34.49.704616 +0530,
165,0,165,0,293.7732739999774,,293.7134696000139,5,293.7732739999774,293.7732739999774,0.0425501000136137,295.24999049998587,[0.435],[-0.03333333333333333],[1],[0],[0],[1.495894199993927],['Target'],546840,001,2024-10-08_16h34.40.152,3.0 search,2024.1.5,None,2024-10-08 16h34.49.704616 +0530,
166,0,166,0,295.33766590000596,,295.26126090000616,10,295.33766590000596,295.33766590000596,0.05750360002275556,297.35775079997256,[0.365],[0.065],[1],[0],[0],[2.040551099984441],['Target'],546840,001,2024-10-08_16h34.40.152,3.0 search,2024.1.5,None,2024-10-08 16h34.49.704616 +0530,
167,0,167,0,297.43393850000575,,297.36338260001503,10,297.43393850000575,297.43393850000575,0.05217709997668862,299.17381040001055,[-0.10833333333333334],[-0.33],[1],[0],[0],[1.7586913999984972],['Target'],546840,001,2024-10-08_16h34.40.152,3.0 search,2024.1.5,None,2024-10-08 16h34.49.704616 +0530,
168,0,168,0,299.2315367999836,,299.18355289998,5,299.2315367999836,299.2315367999836,0.034920800011605024,301.4536573999794,[0.3233333333333333],[-0.43],[1],[0],[0],[2.2367632999666966],['Target'],546840,001,2024-10-08_16h34.40.152,3.0 search,2024.1.5,None,2024-10-08 16h34.49.704616 +0530,
169,0,169,0,301.51106950000394,,301.4649129000027,5,301.51106950000394,301.51106950000394,0.03629740001633763,302.90287270001136,[-0.16833333333333333],[-0.2833333333333333],[1],[0],[0],[1.4034994000103325],['Target'],546840,001,2024-10-08_16h34.40.152,3.0 search,2024.1.5,None,2024-10-08 16h34.49.704616 +0530,
170,0,170,0,302.99256689997856,,302.9141193999676,5,302.99256689997856,302.99256689997856,0.043980599963106215,304.8315797999967,[-0.13833333333333334],[0.27],[1],[0],[0],[1.8748809999669902],['Target'],546840,001,2024-10-08_16h34.40.152,3.0 search,2024.1.5,None,2024-10-08 16h34.49.704616 +0530,
171,0,171,0,304.9226387999952,,304.8415702999919,5,304.9226387999952,304.9226387999952,0.042708200053311884,306.37900829996215,[0.3466666666666667],[0.35],[1],[0],[0],[1.4955779000301845],['Target'],546840,001,2024-10-08_16h34.40.152,3.0 search,2024.1.5,None,2024-10-08 16h34.49.704616 +0530,
172,0,172,0,306.4533850000007,,306.3891540999757,5,306.4533850000007,306.4533850000007,0.04240340000251308,308.5957849000115,[0.45],[-0.365],[1],[0],[0],[2.165004600014072],['Target'],546840,001,2024-10-08_16h34.40.152,3.0 search,2024.1.5,None,2024-10-08 16h34.49.704616 +0530,
173,0,173,0,308.66692879999755,,308.60781580000184,5,308.66692879999755,308.66692879999755,0.037338100024499,309.9238687999896,[0.08166666666666667],[-0.10666666666666667],[1],[0],[0],[1.2799564999877475],['Target'],546840,001,2024-10-08_16h34.40.152,3.0 search,2024.1.5,None,2024-10-08 16h34.49.704616 +0530,
174,0,174,0,309.99793289997615,,309.9326624000096,5,309.99793289997615,309.99793289997615,0.039698700013104826,311.57475390000036,[0.32166666666666666],[0.175],[1],[0],[0],[1.6030922000063583],['Target'],546840,001,2024-10-08_16h34.40.152,3.0 search,2024.1.5,None,2024-10-08 16h34.49.704616 +0530,
175,0,175,0,311.6285710000084,,311.5847485999693,5,311.6285710000084,311.6285710000084,0.03075669996906072,313.0218547999975,[-0.18833333333333332],[0.44166666666666665],[1],[0],[0],[1.407315699965693],[],546840,001,2024-10-08_16h34.40.152,3.0 search,2024.1.5,None,2024-10-08 16h34.49.704616 +0530,
176,0,176,0,313.1425522000063,,313.0343293999904,10,313.1425522000063,313.1425522000063,0.07185449998360127,315.3138360999874,[-0.335],[-0.165],[1],[0],[0],[2.2089802999980748],['Target'],546840,001,2024-10-08_16h34.40.152,3.0 search,2024.1.5,None,2024-10-08 16h34.49.704616 +0530,
177,0,177,0,315.37204779998865,,315.3203113999916,5,315.37204779998865,315.37204779998865,0.03176529996562749,316.89544469997054,[-0.335],[0.12166666666666667],[1],[0],[0],[1.544096699974034],['Target'],546840,001,2024-10-08_16h34.40.152,3.0 search,2024.1.5,None,2024-10-08 16h34.49.704616 +0530,
178,0,178,0,317.01977670000633,,316.9053234999883,10,317.01977670000633,317.01977670000633,0.08394819998648018,318.9770193999866,[-0.5016666666666667],[-0.31333333333333335],[1],[0],[0],[1.9902010000078008],['Target'],546840,001,2024-10-08_16h34.40.152,3.0 search,2024.1.5,None,2024-10-08 16h34.49.704616 +0530,
179,0,179,0,319.09964420000324,,318.98906639998313,10,319.09964420000324,319.09964420000324,0.07326910004485399,320.79758529999526,[0.18833333333333332],[-0.38166666666666665],[1],[0],[0],[1.7363668999751098],['Target'],546840,001,2024-10-08_16h34.40.152,3.0 search,2024.1.5,None,2024-10-08 16h34.49.704616 +0530,
180,0,180,0,320.87989959999686,,320.81397069996456,10,320.87989959999686,320.87989959999686,0.0509215000201948,323.0030854999786,[0.04],[-0.4],[1],[0],[0],[2.1390226000221446],['Target'],546840,001,2024-10-08_16h34.40.152,3.0 search,2024.1.5,None,2024-10-08 16h34.49.704616 +0530,
181,0,181,0,323.0769957000157,,323.011569699971,5,323.0769957000157,323.0769957000157,0.039895800000522286,324.7041948999977,[-0.4533333333333333],[0.17666666666666667],[1],[0],[0],[1.6535549000254832],['Target'],546840,001,2024-10-08_16h34.40.152,3.0 search,2024.1.5,None,2024-10-08 16h34.49.704616 +0530,
182,0,182,0,324.7740444999654,,324.7149967000005,10,324.7740444999654,324.7740444999654,0.03778039995813742,326.85557680000784,[-0.15333333333333332],[0.125],[1],[0],[0],[2.1023397999815643],['Target'],546840,001,2024-10-08_16h34.40.152,3.0 search,2024.1.5,None,2024-10-08 16h34.49.704616 +0530,
183,0,183,0,326.95436779997544,,326.87635330000194,5,326.95436779997544,326.95436779997544,0.05287999997381121,328.79492539999774,[0.4583333333333333],[-0.285],[1],[0],[0],[1.868817999958992],['Target'],546840,001,2024-10-08_16h34.40.152,3.0 search,2024.1.5,None,2024-10-08 16h34.49.704616 +0530,
184,0,184,0,328.9010438999976,,328.80727210000623,10,328.9010438999976,328.9010438999976,0.0735706000123173,331.32204709999496,[-0.28833333333333333],[0.04],[1],[0],[0],[2.4424773000064306],['Target'],546840,001,2024-10-08_16h34.40.152,3.0 search,2024.1.5,None,2024-10-08 16h34.49.704616 +0530,
185,0,185,0,331.4134969000006,,331.3385053999955,5,331.4134969000006,331.4134969000006,0.05937800003448501,332.9873089999892,[-0.31],[0.15833333333333333],[1],[0],[0],[1.5918984000454657],['Target'],546840,001,2024-10-08_16h34.40.152,3.0 search,2024.1.5,None,2024-10-08 16h34.49.704616 +0530,
186,0,186,0,333.0435656000045,,332.9962377999909,5,333.0435656000045,333.0435656000045,0.0333542000153102,334.5015346999862,[-0.48833333333333334],[-0.28833333333333333],[1],[0],[0],[1.4730070999939926],[],546840,001,2024-10-08_16h34.40.152,3.0 search,2024.1.5,None,2024-10-08 16h34.49.704616 +0530,
187,0,187,0,334.59137430001283,,334.5128622999764,10,334.59137430001283,334.59137430001283,0.057962800026871264,336.44644610001706,[-0.46166666666666667],[-0.49166666666666664],[1],[0],[0],[1.8770405999966897],['Target'],546840,001,2024-10-08_16h34.40.152,3.0 search,2024.1.5,None,2024-10-08 16h34.49.704616 +0530,
188,0,188,0,336.5050945999683,,336.4530535999802,5,336.5050945999683,336.5050945999683,0.03349210001761094,338.14692169998307,[-0.37833333333333335],[-0.43],[1],[0],[0],[1.6608935000258498],['Target'],546840,001,2024-10-08_16h34.40.152,3.0 search,2024.1.5,None,2024-10-08 16h34.49.704616 +0530,
189,0,189,0,338.2527507999912,,338.15700170001946,10,338.2527507999912,338.2527507999912,0.05889849999221042,340.2054652000079,[-0.06],[0.041666666666666664],[1],[0],[0],[1.9906523000099696],['Target'],546840,001,2024-10-08_16h34.40.152,3.0 search,2024.1.5,None,2024-10-08 16h34.49.704616 +0530,
190,0,190,0,340.26598709996324,,340.21124059997965,5,340.26598709996324,340.26598709996324,0.031511500012129545,342.3232828999753,[-0.42333333333333334],[-0.4166666666666667],[1],[0],[0],[2.0808144999900833],['Target'],546840,001,2024-10-08_16h34.40.152,3.0 search,2024.1.5,None,2024-10-08 16h34.49.704616 +0530,
191,0,191,0,342.4128386999946,,342.33588349999627,5,342.4128386999946,342.4128386999946,0.046828199992887676,345.8163290999946,[0.055],[-0.3333333333333333],[1],[0],[0],[3.434623700042721],['Target'],546840,001,2024-10-08_16h34.40.152,3.0 search,2024.1.5,None,2024-10-08 16h34.49.704616 +0530,
192,0,192,0,345.9067345999647,,345.82741259998875,10,345.9067345999647,345.9067345999647,0.056371400016359985,347.65589379996527,[0.40166666666666667],[-0.265],[1],[0],[0],[1.7731772999977693],['Target'],546840,001,2024-10-08_16h34.40.152,3.0 search,2024.1.5,None,2024-10-08 16h34.49.704616 +0530,
193,0,193,0,347.7376099000103,,347.66999570000917,5,347.7376099000103,347.7376099000103,0.04825249995337799,349.5127725999919,[-0.38666666666666666],[0.23833333333333334],[1],[0],[0],[1.7971594000118785],['Target'],546840,001,2024-10-08_16h34.40.152,3.0 search,2024.1.5,None,2024-10-08 16h34.49.704616 +0530,
194,0,194,0,349.5843012999976,,349.5226134000113,5,349.5843012999976,349.5843012999976,0.0406937999650836,351.0405138999922,[-0.21833333333333332],[-0.06833333333333333],[1],[0],[0],[1.4782181999762543],['Target'],546840,001,2024-10-08_16h34.40.152,3.0 search,2024.1.5,None,2024-10-08 16h34.49.704616 +0530,
195,0,195,0,351.09816940000746,,351.0504569999757,5,351.09816940000746,351.09816940000746,0.03620999999111518,352.4734052999993,[-0.44166666666666665],[-0.18],[1],[0],[0],[1.3891688999719918],['Target'],546840,001,2024-10-08_16h34.40.152,3.0 search,2024.1.5,None,2024-10-08 16h34.49.704616 +0530,
196,0,196,0,352.57922879996477,,352.4862584999646,10,352.57922879996477,352.57922879996477,0.07078910002019256,354.61773920000996,[0.4],[0.05],[1],[0],[0],[2.062359200033825],['Target'],546840,001,2024-10-08_16h34.40.152,3.0 search,2024.1.5,None,2024-10-08 16h34.49.704616 +0530,
197,0,197,0,354.7091225999757,,354.6290047999937,10,354.7091225999757,354.7091225999757,0.06710320001002401,356.27686959999846,[0.04833333333333333],[0.25166666666666665],[1],[0],[0],[1.5821113000274636],['Target'],546840,001,2024-10-08_16h34.40.152,3.0 search,2024.1.5,None,2024-10-08 16h34.49.704616 +0530,
198,0,198,0,356.37350059999153,,356.29256600001827,5,356.37350059999153,356.37350059999153,0.0583683000295423,357.9642672999762,[0.29333333333333333],[-0.17666666666666667],[1],[0],[0],[1.6160613000392914],['Target'],546840,001,2024-10-08_16h34.40.152,3.0 search,2024.1.5,None,2024-10-08 16h34.49.704616 +0530,
199,0,199,0,358.0369416999747,,357.9753524999833,5,358.0369416999747,358.0369416999747,0.03856429998995736,359.32730289996834,[-0.03333333333333333],[0.41833333333333333],[1],[0],[0],[1.3145040000090376],['Target'],546840,001,2024-10-08_16h34.40.152,3.0 search,2024.1.5,None,2024-10-08 16h34.49.704616 +0530,
