Study_word,test_word,Reference,old_new,trials.thisRepN,trials.thisTrialN,trials.thisN,trials.thisIndex,trials_2.thisRepN,trials_2.thisTrialN,trials_2.thisN,trials_2.thisIndex,thisRow.t,notes,Study_Phase.started,StudyText.started,Studyslider.started,Study_Phase.stopped,Studyslider.response,Studyslider.rt,Test_Phase.started,TestText.started,test_textbox.started,submit_text.started,testmouse.started,Test_Phase.stopped,test_textbox.text,testmouse.x,testmouse.y,testmouse.leftButton,testmouse.midButton,testmouse.rightButton,testmouse.time,testmouse.clicked_name,participant,session,date,expName,psychopyVersion,frameRate,expStart,
Cruise,,,,0,0,0,11,,,,,0.07801860012114048,,0.02045380021445453,0.07801860012114048,0.07801860012114048,1.7639659000560641,1.0851851851851853,1.7096388000063598,,,,,,,,,,,,,,,0003,001,2024-11-07_15h05.33.328,Word Priming,2024.1.5,None,2024-11-07 15h05.48.411534 +0530,
laptop,,,,0,1,1,5,,,,,1.7878103000111878,,1.7644034000113606,1.7878103000111878,1.7878103000111878,2.530408800113946,1.0185185185185186,0.7430511999409646,,,,,,,,,,,,,,,0003,001,2024-11-07_15h05.33.328,Word Priming,2024.1.5,None,2024-11-07 15h05.48.411534 +0530,
T-shirt,,,,0,2,2,7,,,,,2.553996700095013,,2.5307051001582295,2.553996700095013,2.553996700095013,4.430729400133714,2.011111111111111,1.8774364998098463,,,,,,,,,,,,,,,0003,001,2024-11-07_15h05.33.328,Word Priming,2024.1.5,None,2024-11-07 15h05.48.411534 +0530,
book,,,,0,3,3,0,,,,,4.452280500205234,,4.431039000162855,4.452280500205234,4.452280500205234,5.975631000008434,2.962962962962963,1.5214976998977363,,,,,,,,,,,,,,,0003,001,2024-11-07_15h05.33.328,Word Priming,2024.1.5,None,2024-11-07 15h05.48.411534 +0530,
mouse,,,,0,4,4,8,,,,,5.996109600178897,,5.975927400169894,5.996109600178897,5.996109600178897,7.275404400192201,4.97037037037037,1.2766562001779675,,,,,,,,,,,,,,,0003,001,2024-11-07_15h05.33.328,Word Priming,2024.1.5,None,2024-11-07 15h05.48.411534 +0530,
Keys,,,,0,5,5,13,,,,,7.30033090012148,,7.275933200027794,7.30033090012148,7.30033090012148,8.420617900090292,3.9703703703703703,1.1140795999672264,,,,,,,,,,,,,,,0003,001,2024-11-07_15h05.33.328,Word Priming,2024.1.5,None,2024-11-07 15h05.48.411534 +0530,
Pastry,,,,0,6,6,9,,,,,8.443923600018024,,8.42101570009254,8.443923600018024,8.443923600018024,10.033746300032362,3.0074074074074075,1.5905748999211937,,,,,,,,,,,,,,,0003,001,2024-11-07_15h05.33.328,Word Priming,2024.1.5,None,2024-11-07 15h05.48.411534 +0530,
phone,,,,0,7,7,2,,,,,10.056071000173688,,10.034093800000846,10.056071000173688,10.056071000173688,11.352114000124857,1.011111111111111,1.2966736999806017,,,,,,,,,,,,,,,0003,001,2024-11-07_15h05.33.328,Word Priming,2024.1.5,None,2024-11-07 15h05.48.411534 +0530,
Chart,,,,0,8,8,6,,,,,11.372600700007752,,11.352408500155434,11.372600700007752,11.372600700007752,12.499406500020996,2.0481481481481483,1.1260805998463184,,,,,,,,,,,,,,,0003,001,2024-11-07_15h05.33.328,Word Priming,2024.1.5,None,2024-11-07 15h05.48.411534 +0530,
Case,,,,0,9,9,10,,,,,12.522625000216067,,12.499765100190416,12.522625000216067,12.522625000216067,13.897379500092939,4.981481481481481,1.3767045999411494,,,,,,,,,,,,,,,0003,001,2024-11-07_15h05.33.328,Word Priming,2024.1.5,None,2024-11-07 15h05.48.411534 +0530,
marble,,,,0,10,10,3,,,,,13.918103500036523,,13.897682200185955,13.918103500036523,13.918103500036523,15.207070700125769,3.0407407407407407,1.288717000046745,,,,,,,,,,,,,,,0003,001,2024-11-07_15h05.33.328,Word Priming,2024.1.5,None,2024-11-07 15h05.48.411534 +0530,
Poster,,,,0,11,11,14,,,,,15.228160300059244,,15.207376400008798,15.228160300059244,15.228160300059244,16.60178910009563,1.9074074074074074,1.3718135000672191,,,,,,,,,,,,,,,0003,001,2024-11-07_15h05.33.328,Word Priming,2024.1.5,None,2024-11-07 15h05.48.411534 +0530,
cushion,,,,0,12,12,1,,,,,16.622486600186676,,16.60216090013273,16.622486600186676,16.622486600186676,18.422592100221664,4.0,1.7994886999949813,,,,,,,,,,,,,,,0003,001,2024-11-07_15h05.33.328,Word Priming,2024.1.5,None,2024-11-07 15h05.48.411534 +0530,
board,,,,0,13,13,4,,,,,18.44624050008133,,18.422892600065097,18.44624050008133,18.44624050008133,20.297999400179833,1.0185185185185186,1.8526119999587536,,,,,,,,,,,,,,,0003,001,2024-11-07_15h05.33.328,Word Priming,2024.1.5,None,2024-11-07 15h05.48.411534 +0530,
Police,,,,0,14,14,12,,,,,20.320188600104302,,20.29830880020745,20.320188600104302,20.320188600104302,21.519646200118586,2.0962962962962965,1.1997769998852164,,,,,,,,,,,,,,,0003,001,2024-11-07_15h05.33.328,Word Priming,2024.1.5,None,2024-11-07 15h05.48.411534 +0530,
,_ou_se,mouse,old,,,,,0,0,0,3,21.54747680015862,,,,,,,,21.528418800095096,21.54747680015862,21.54747680015862,21.54747680015862,0.012464000144973397,27.777111600153148,mouse,[0.06481481481481481],[-0.3055555555555556],[1],[0],[0],[6.243630500044674],['submit_text'],0003,001,2024-11-07_15h05.33.328,Word Priming,2024.1.5,None,2024-11-07 15h05.48.411534 +0530,
,P_st_r,Poster,old,,,,,0,1,1,9,27.806374300038442,,,,,,,,27.779964600224048,27.806374300038442,27.806374300038442,27.806374300038442,0.006414599949494004,31.29465340008028,pastry,[0.013888888888888888],[-0.3277777777777778],[1],[0],[0],[3.5068403999321163],['submit_text'],0003,001,2024-11-07_15h05.33.328,Word Priming,2024.1.5,None,2024-11-07 15h05.48.411534 +0530,
,p_nc_l,Pencil,new,,,,,0,2,2,16,31.346691000042483,,,,,,,,31.29747480014339,31.346691000042483,31.346691000042483,31.346691000042483,0.012493199901655316,34.09900870011188,pencil,[0.001851851851851852],[-0.2953703703703704],[1],[0],[0],[2.788285099901259],['submit_text'],0003,001,2024-11-07_15h05.33.328,Word Priming,2024.1.5,None,2024-11-07 15h05.48.411534 +0530,
,bo_t_e,Bottle,new,,,,,0,3,3,18,34.13007260020822,,,,,,,,34.100978900212795,34.13007260020822,34.13007260020822,34.13007260020822,0.006552699953317642,37.061031999997795,bottle,[-0.019444444444444445],[-0.29444444444444445],[1],[0],[0],[2.9527780001517385],['submit_text'],0003,001,2024-11-07_15h05.33.328,Word Priming,2024.1.5,None,2024-11-07 15h05.48.411534 +0530,
,v_s_,Vase,new,,,,,0,4,4,17,37.1006415002048,,,,,,,,37.06345410016365,37.1006415002048,37.1006415002048,37.1006415002048,0.012358400039374828,42.68505040020682,vase,[-0.021296296296296296],[-0.29444444444444445],[1],[0],[0],[5.608237899839878],['submit_text'],0003,001,2024-11-07_15h05.33.328,Word Priming,2024.1.5,None,2024-11-07 15h05.48.411534 +0530,
,c_m_ra,Camera,new,,,,,0,5,5,19,42.714205800089985,,,,,,,,42.686712000053376,42.714205800089985,42.714205800089985,42.714205800089985,0.006700999801978469,46.19349990016781,camera,[-0.021296296296296296],[-0.29444444444444445],[1],[0],[0],[3.4982352000661194],['submit_text'],0003,001,2024-11-07_15h05.33.328,Word Priming,2024.1.5,None,2024-11-07 15h05.48.411534 +0530,
,_ru_is_,Cruise,old,,,,,0,6,6,6,46.24671970005147,,,,,,,,46.19674090016633,46.24671970005147,46.24671970005147,46.24671970005147,0.011577299796044827,49.328539500012994,cruise,[-0.021296296296296296],[-0.29444444444444445],[1],[0],[0],[3.1197446999140084],['submit_text'],0003,001,2024-11-07_15h05.33.328,Word Priming,2024.1.5,None,2024-11-07 15h05.48.411534 +0530,
,c_s_,Case,old,,,,,0,7,7,5,49.359298000112176,,,,,,,,49.330326800001785,49.359298000112176,49.359298000112176,49.359298000112176,0.00632339995354414,52.576946800109,case,[-0.021296296296296296],[-0.29444444444444445],[1],[0],[0],[3.239675800083205],['submit_text'],0003,001,2024-11-07_15h05.33.328,Word Priming,2024.1.5,None,2024-11-07 15h05.48.411534 +0530,
,K_y_,Keys,old,,,,,0,8,8,8,52.60632080002688,,,,,,,,52.57884329999797,52.60632080002688,52.60632080002688,52.60632080002688,0.006271000020205975,54.818813000107184,keys,[-0.021296296296296296],[-0.29444444444444445],[1],[0],[0],[2.2329373999964446],['submit_text'],0003,001,2024-11-07_15h05.33.328,Word Priming,2024.1.5,None,2024-11-07 15h05.48.411534 +0530,
,l_pt_p,Laptop,old,,,,,0,9,9,0,54.84804970002733,,,,,,,,54.82083010021597,54.84804970002733,54.84804970002733,54.84804970002733,0.006247200071811676,59.36731370002963,laptop,[-0.09074074074074075],[-0.29444444444444445],[1],[0],[0],[4.539410199970007],['submit_text'],0003,001,2024-11-07_15h05.33.328,Word Priming,2024.1.5,None,2024-11-07 15h05.48.411534 +0530,
,T_hi_t,Tshirt,old,,,,,0,10,10,2,59.3993943000678,,,,,,,,59.36907420004718,59.3993943000678,59.3993943000678,59.3993943000678,0.007355600129812956,62.01516140019521,tshirt,[-0.09074074074074075],[-0.29444444444444445],[1],[0],[0],[2.6379778999835253],['submit_text'],0003,001,2024-11-07_15h05.33.328,Word Priming,2024.1.5,None,2024-11-07 15h05.48.411534 +0530,
,ta_l_,Table,new,,,,,0,11,11,15,62.03792200004682,,,,,,,,62.016841100063175,62.03792200004682,62.03792200004682,62.03792200004682,0.004401999991387129,65.24972240021452,table,[-0.09074074074074075],[-0.2935185185185185],[1],[0],[0],[3.227738599991426],['submit_text'],0003,001,2024-11-07_15h05.33.328,Word Priming,2024.1.5,None,2024-11-07 15h05.48.411534 +0530,
,P_s_r_,Pastry,old,,,,,0,12,12,4,65.27854200010188,,,,,,,,65.2513964001555,65.27854200010188,65.27854200010188,65.27854200010188,0.005978200118988752,68.51120770000853,poster,[-0.1287037037037037],[-0.2972222222222222],[1],[0],[0],[3.2529368000105023],['submit_text'],0003,001,2024-11-07_15h05.33.328,Word Priming,2024.1.5,None,2024-11-07 15h05.48.411534 +0530,
,c_s_io_,Cushion,old,,,,,0,13,13,14,68.54025070019998,,,,,,,,68.51287330011837,68.54025070019998,68.54025070019998,68.54025070019998,0.006270099896937609,71.85493180016056,cushion,[-0.1287037037037037],[-0.2972222222222222],[1],[0],[0],[3.334840000141412],['submit_text'],0003,001,2024-11-07_15h05.33.328,Word Priming,2024.1.5,None,2024-11-07 15h05.48.411534 +0530,
,_oo_,Book,old,,,,,0,14,14,13,71.88283920008689,,,,,,,,71.85654190019704,71.88283920008689,71.88283920008689,71.88283920008689,0.006376500008627772,74.73425020021386,book,[-0.040740740740740744],[-0.2972222222222222],[1],[0],[0],[2.870546800084412],['submit_text'],0003,001,2024-11-07_15h05.33.328,Word Priming,2024.1.5,None,2024-11-07 15h05.48.411534 +0530,
,P_li_e,Police,old,,,,,0,15,15,7,74.7625806001015,,,,,,,,74.73602010007016,74.7625806001015,74.7625806001015,74.7625806001015,0.006126499967649579,79.12122500012629,police,[-0.040740740740740744],[-0.2972222222222222],[1],[0],[0],[4.378137200139463],['submit_text'],0003,001,2024-11-07_15h05.33.328,Word Priming,2024.1.5,None,2024-11-07 15h05.48.411534 +0530,
,_o_rd,Board,old,,,,,0,16,16,10,79.15130750020035,,,,,,,,79.12300940020941,79.15130750020035,79.15130750020035,79.15130750020035,0.006676600081846118,82.81212430004962,board,[-0.040740740740740744],[-0.2972222222222222],[1],[0],[0],[3.6809773000422865],['submit_text'],0003,001,2024-11-07_15h05.33.328,Word Priming,2024.1.5,None,2024-11-07 15h05.48.411534 +0530,
,_ha_t,Chart,old,,,,,0,17,17,1,82.86445070011541,,,,,,,,82.81560800014995,82.86445070011541,82.86445070011541,82.86445070011541,0.012589900055900216,85.8836143000517,chart,[-0.040740740740740744],[-0.2972222222222222],[1],[0],[0],[3.0550879000220448],['submit_text'],0003,001,2024-11-07_15h05.33.328,Word Priming,2024.1.5,None,2024-11-07 15h05.48.411534 +0530,
,_ho_e,Phone,old,,,,,0,18,18,12,85.91081050015055,,,,,,,,85.8852448000107,85.91081050015055,85.91081050015055,85.91081050015055,0.005596200004220009,89.62592930020764,phone,[-0.06759259259259259],[-0.2972222222222222],[1],[0],[0],[3.7344520001206547],['submit_text'],0003,001,2024-11-07_15h05.33.328,Word Priming,2024.1.5,None,2024-11-07 15h05.48.411534 +0530,
,_a_bl_,Marble,old,,,,,0,19,19,11,89.65119580016471,,,,,,,,89.62710430007428,89.65119580016471,89.65119580016471,89.65119580016471,0.005050600040704012,92.40315270004794,table,[-0.09166666666666666],[-0.30185185185185187],[1],[0],[0],[2.7700584998819977],['submit_text'],0003,001,2024-11-07_15h05.33.328,Word Priming,2024.1.5,None,2024-11-07 15h05.48.411534 +0530,
