Study_word,test_word,Reference,old_new,trials.thisRepN,trials.thisTrialN,trials.thisN,trials.thisIndex,trials_2.thisRepN,trials_2.thisTrialN,trials_2.thisN,trials_2.thisIndex,thisRow.t,notes,Study_Phase.started,StudyText.started,Studyslider.started,Study_Phase.stopped,Studyslider.response,Studyslider.rt,Test_Phase.started,TestText.started,test_textbox.started,submit_text.started,testmouse.started,Test_Phase.stopped,test_textbox.text,testmouse.x,testmouse.y,testmouse.leftButton,testmouse.midButton,testmouse.rightButton,testmouse.time,testmouse.clicked_name,TestText.stopped,participant,session,date,expName,psychopyVersion,frameRate,expStart,
book,,,,0,0,0,0,,,,,0.060348200146108866,,0.015170000027865171,0.060348200146108866,0.060348200146108866,2.7748225000686944,4.237037037037037,2.7352974000386894,,,,,,,,,,,,,,,,0004,001,2024-11-07_15h07.53.328,Word Priming,2024.1.5,None,2024-11-07 15h08.09.718940 +0530,
Police,,,,0,1,1,12,,,,,2.7988065001554787,,2.77529550017789,2.7988065001554787,2.7988065001554787,3.542653900105506,2.051851851851852,0.7420206998940557,,,,,,,,,,,,,,,,0004,001,2024-11-07_15h07.53.328,Word Priming,2024.1.5,None,2024-11-07 15h08.09.718940 +0530,
board,,,,0,2,2,4,,,,,3.5662621001247317,,3.543062400072813,3.5662621001247317,3.5662621001247317,4.219945300137624,2.3555555555555556,0.6524815000593662,,,,,,,,,,,,,,,,0004,001,2024-11-07_15h07.53.328,Word Priming,2024.1.5,None,2024-11-07 15h08.09.718940 +0530,
phone,,,,0,3,3,2,,,,,4.242720500100404,,4.220240500057116,4.242720500100404,4.242720500100404,4.800687700044364,2.4814814814814814,0.5569707998074591,,,,,,,,,,,,,,,,0004,001,2024-11-07_15h07.53.328,Word Priming,2024.1.5,None,2024-11-07 15h08.09.718940 +0530,
Keys,,,,0,4,4,13,,,,,4.8232403001748025,,4.800981900189072,4.8232403001748025,4.8232403001748025,5.317212600028142,2.4814814814814814,0.4915823999326676,,,,,,,,,,,,,,,,0004,001,2024-11-07_15h07.53.328,Word Priming,2024.1.5,None,2024-11-07 15h08.09.718940 +0530,
Cruise,,,,0,5,5,11,,,,,5.339723899960518,,5.3175578999798745,5.339723899960518,5.339723899960518,5.810822300147265,2.4814814814814814,0.4687869001645595,,,,,,,,,,,,,,,,0004,001,2024-11-07_15h07.53.328,Word Priming,2024.1.5,None,2024-11-07 15h08.09.718940 +0530,
laptop,,,,0,6,6,5,,,,,5.831943799974397,,5.811205700039864,5.831943799974397,5.831943799974397,5.992950200103223,2.4814814814814814,0.1567702000029385,,,,,,,,,,,,,,,,0004,001,2024-11-07_15h07.53.328,Word Priming,2024.1.5,None,2024-11-07 15h08.09.718940 +0530,
Pastry,,,,0,7,7,9,,,,,6.0135592999868095,,5.993281800067052,6.0135592999868095,6.0135592999868095,6.406791400164366,2.4814814814814814,0.3929462998639792,,,,,,,,,,,,,,,,0004,001,2024-11-07_15h07.53.328,Word Priming,2024.1.5,None,2024-11-07 15h08.09.718940 +0530,
Chart,,,,0,8,8,6,,,,,6.4282943001016974,,6.407110000029206,6.4282943001016974,6.4282943001016974,7.516669300151989,3.1,1.0878348001278937,,,,,,,,,,,,,,,,0004,001,2024-11-07_15h07.53.328,Word Priming,2024.1.5,None,2024-11-07 15h08.09.718940 +0530,
T-shirt,,,,0,9,9,7,,,,,7.539884499972686,,7.517007400048897,7.539884499972686,7.539884499972686,8.012284700060263,3.1,0.4698342999909073,,,,,,,,,,,,,,,,0004,001,2024-11-07_15h07.53.328,Word Priming,2024.1.5,None,2024-11-07 15h08.09.718940 +0530,
marble,,,,0,10,10,3,,,,,8.037029300117865,,8.012661900138482,8.037029300117865,8.037029300117865,8.639789700042456,3.1,0.6044554999098182,,,,,,,,,,,,,,,,0004,001,2024-11-07_15h07.53.328,Word Priming,2024.1.5,None,2024-11-07 15h08.09.718940 +0530,
mouse,,,,0,11,11,8,,,,,8.661828299984336,,8.64013239997439,8.661828299984336,8.661828299984336,9.519257700070739,2.0666666666666664,0.8580344000365585,,,,,,,,,,,,,,,,0004,001,2024-11-07_15h07.53.328,Word Priming,2024.1.5,None,2024-11-07 15h08.09.718940 +0530,
Poster,,,,0,12,12,14,,,,,9.539578899974003,,9.519581099972129,9.539578899974003,9.539578899974003,10.72452830011025,4.188888888888889,1.1824696001131088,,,,,,,,,,,,,,,,0004,001,2024-11-07_15h07.53.328,Word Priming,2024.1.5,None,2024-11-07 15h08.09.718940 +0530,
cushion,,,,0,13,13,1,,,,,10.746459300164133,,10.724899100139737,10.746459300164133,10.746459300164133,11.535007599974051,1.7962962962962963,0.7878368000965565,,,,,,,,,,,,,,,,0004,001,2024-11-07_15h07.53.328,Word Priming,2024.1.5,None,2024-11-07 15h08.09.718940 +0530,
Case,,,,0,14,14,10,,,,,11.555989700136706,,11.535305100027472,11.555989700136706,11.555989700136706,12.224799399962649,3.2814814814814817,0.6672221999615431,,,,,,,,,,,,,,,,0004,001,2024-11-07_15h07.53.328,Word Priming,2024.1.5,None,2024-11-07 15h08.09.718940 +0530,
,_ha_t,Chart,old,,,,,0,0,0,1,12.251087200129405,,,,,,,,12.233391999965534,12.251087200129405,12.251087200129405,12.251087200129405,0.012277300003916025,18.427354500163347,chart,"[-0.006481481481481481, -0.006481481481481481, 0.016666666666666666]","[-0.3388888888888889, -0.3388888888888889, -0.3101851851851852]","[1, 1, 1]","[0, 0, 0]","[0, 0, 0]","[0.5533826001919806, 1.2588231000117958, 6.189200500026345]",['submit_text'],,0004,001,2024-11-07_15h07.53.328,Word Priming,2024.1.5,None,2024-11-07 15h08.09.718940 +0530,
,_oo_,Book,old,,,,,0,1,1,13,18.46090569999069,,,,,,,,18.43070390005596,18.46090569999069,18.46090569999069,18.46090569999069,0.006332100136205554,22.172390199964866,book,[-0.012037037037037037],[-0.2916666666666667],[1],[0],[0],[3.734647599980235],['submit_text'],,0004,001,2024-11-07_15h07.53.328,Word Priming,2024.1.5,None,2024-11-07 15h08.09.718940 +0530,
,v_s_,Vase,new,,,,,0,2,2,17,22.20929540018551,,,,,,,,22.17419150006026,22.20929540018551,22.20929540018551,22.20929540018551,0.012602200033143163,24.546342800138518,vase,[-0.012037037037037037],[-0.2916666666666667],[1],[0],[0],[2.3590191998519003],['submit_text'],,0004,001,2024-11-07_15h07.53.328,Word Priming,2024.1.5,None,2024-11-07 15h08.09.718940 +0530,
,P_st_r,Poster,old,,,,,0,3,3,9,24.567272200016305,,,,,,,,24.54766090004705,24.567272200016305,24.567272200016305,24.567272200016305,0.004724099999293685,28.023771000094712,poster,[-0.012037037037037037],[-0.2916666666666667],[1],[0],[0],[3.4709505999926478],['submit_text'],,0004,001,2024-11-07_15h07.53.328,Word Priming,2024.1.5,None,2024-11-07 15h08.09.718940 +0530,
,c_s_,Case,old,,,,,0,4,4,5,28.062279000179842,,,,,,,,28.024722900008783,28.062279000179842,28.062279000179842,28.062279000179842,0.008079299936071038,30.520858200034127,case,[-0.012037037037037037],[-0.2916666666666667],[1],[0],[0],[2.4870515998918563],['submit_text'],,0004,001,2024-11-07_15h07.53.328,Word Priming,2024.1.5,None,2024-11-07 15h08.09.718940 +0530,
,P_s_r_,Pastry,old,,,,,0,5,5,4,30.55115450010635,,,,,,,,30.52260270016268,30.55115450010635,30.55115450010635,30.55115450010635,0.00668510003015399,34.89730060007423,pastry,[-0.01574074074074074],[-0.3],[1],[0],[0],[4.367053900146857],['submit_text'],,0004,001,2024-11-07_15h07.53.328,Word Priming,2024.1.5,None,2024-11-07 15h08.09.718940 +0530,
,_o_rd,Board,old,,,,,0,6,6,10,34.92604020005092,,,,,,,,34.89943920006044,34.92604020005092,34.92604020005092,34.92604020005092,0.006000999826937914,38.9906375000719,board,[-0.01574074074074074],[-0.3],[1],[0],[0],[4.084425899898633],['submit_text'],,0004,001,2024-11-07_15h07.53.328,Word Priming,2024.1.5,None,2024-11-07 15h08.09.718940 +0530,
,T_hi_t,Tshirt,old,,,,,0,7,7,2,39.01981800002977,,,,,,,,38.99227720010094,39.01981800002977,39.01981800002977,39.01981800002977,0.006182899931445718,41.894732400076464,tshirt,[-0.016666666666666666],[-0.3],[1],[0],[0],[2.895532499998808],['submit_text'],,0004,001,2024-11-07_15h07.53.328,Word Priming,2024.1.5,None,2024-11-07 15h08.09.718940 +0530,
,_ru_is_,Cruise,old,,,,,0,8,8,6,41.925969399977475,,,,,,,,41.896624400047585,41.925969399977475,41.925969399977475,41.925969399977475,0.006903100060299039,46.623812900157645,cruise,[-0.016666666666666666],[-0.3],[1],[0],[0],[4.718922800151631],['submit_text'],,0004,001,2024-11-07_15h07.53.328,Word Priming,2024.1.5,None,2024-11-07 15h08.09.718940 +0530,
,K_y_,Keys,old,,,,,0,9,9,8,46.65032920008525,,,,,,,,46.62541800015606,46.65032920008525,46.65032920008525,46.65032920008525,0.005997500149533153,49.17003100016154,keys,[-0.016666666666666666],[-0.3],[1],[0],[0],[2.5374916000291705],['submit_text'],,0004,001,2024-11-07_15h07.53.328,Word Priming,2024.1.5,None,2024-11-07 15h08.09.718940 +0530,
,p_nc_l,Pencil,new,,,,,0,10,10,16,49.200747300172225,,,,,,,,49.171914000064135,49.200747300172225,49.200747300172225,49.200747300172225,0.006557699991390109,54.056764600099996,pencil,[-0.03425925925925926],[-0.3111111111111111],[1],[0],[0],[4.877574499929324],['submit_text'],,0004,001,2024-11-07_15h07.53.328,Word Priming,2024.1.5,None,2024-11-07 15h08.09.718940 +0530,
,_ho_e,Phone,old,,,,,0,11,11,12,54.08990400005132,,,,,,,,54.05899389996193,54.08990400005132,54.08990400005132,54.08990400005132,0.008526799967512488,64.14942190004513,whole,[-0.02962962962962963],[-0.30648148148148147],[1],[0],[0],[10.081474399892613],['submit_text'],64.09774560015649,0004,001,2024-11-07_15h07.53.328,Word Priming,2024.1.5,None,2024-11-07 15h08.09.718940 +0530,
,c_s_io_,Cushion,old,,,,,0,12,12,14,64.18023540009744,,,,,,,,64.15110890008509,64.18023540009744,64.18023540009744,64.18023540009744,0.006437900010496378,68.37706420011818,cushion,[-0.032407407407407406],[-0.32037037037037036],[1],[0],[0],[4.21860900009051],['submit_text'],,0004,001,2024-11-07_15h07.53.328,Word Priming,2024.1.5,None,2024-11-07 15h08.09.718940 +0530,
,l_pt_p,Laptop,old,,,,,0,13,13,0,68.40684480010532,,,,,,,,68.37898820010014,68.40684480010532,68.40684480010532,68.40684480010532,0.006239900132641196,71.0008329001721,laptop,[-0.032407407407407406],[-0.32037037037037036],[1],[0],[0],[2.614207600010559],['submit_text'],,0004,001,2024-11-07_15h07.53.328,Word Priming,2024.1.5,None,2024-11-07 15h08.09.718940 +0530,
,bo_t_e,Bottle,new,,,,,0,14,14,18,71.05332439998165,,,,,,,,71.00449820002541,71.05332439998165,71.05332439998165,71.05332439998165,0.011799300089478493,76.98242260003462,botle,[-0.03796296296296296],[-0.31666666666666665],[1],[0],[0],[5.9646764998324215],['submit_text'],,0004,001,2024-11-07_15h07.53.328,Word Priming,2024.1.5,None,2024-11-07 15h08.09.718940 +0530,
,P_li_e,Police,old,,,,,0,15,15,7,77.03341240016744,,,,,,,,76.98587059997953,77.03341240016744,77.03341240016744,77.03341240016744,0.010953499935567379,82.01575820008293,police,[-0.03796296296296296],[-0.31666666666666665],[1],[0],[0],[5.017696300055832],['submit_text'],,0004,001,2024-11-07_15h07.53.328,Word Priming,2024.1.5,None,2024-11-07 15h08.09.718940 +0530,
,_a_bl_,Marble,old,,,,,0,16,16,11,82.05026300018653,,,,,,,,82.01836240012199,82.05026300018653,82.05026300018653,82.05026300018653,0.007289599860087037,85.25573450000957,marble,[-0.04722222222222222],[-0.3111111111111111],[1],[0],[0],[3.2292332001961768],['submit_text'],,0004,001,2024-11-07_15h07.53.328,Word Priming,2024.1.5,None,2024-11-07 15h08.09.718940 +0530,
,ta_l_,Table,new,,,,,0,17,17,15,85.28893250017427,,,,,,,,85.25774380005896,85.28893250017427,85.28893250017427,85.28893250017427,0.007339700125157833,88.07096050004475,table,[-0.05],[-0.3101851851851852],[1],[0],[0],[2.8049206000287086],['submit_text'],,0004,001,2024-11-07_15h07.53.328,Word Priming,2024.1.5,None,2024-11-07 15h08.09.718940 +0530,
,c_m_ra,Camera,new,,,,,0,18,18,19,88.10468780016527,,,,,,,,88.07285750005394,88.10468780016527,88.10468780016527,88.10468780016527,0.0073420999106019735,91.01669490011409,camera,[-0.058333333333333334],[-0.30277777777777776],[1],[0],[0],[2.935445100069046],['submit_text'],,0004,001,2024-11-07_15h07.53.328,Word Priming,2024.1.5,None,2024-11-07 15h08.09.718940 +0530,
,_ou_se,mouse,old,,,,,0,19,19,3,91.04877780005336,,,,,,,,91.01830510003492,91.04877780005336,91.04877780005336,91.04877780005336,0.0063795000314712524,94.97006210009567,mouse,[-0.06018518518518518],[-0.30277777777777776],[1],[0],[0],[3.94364139996469],['submit_text'],,0004,001,2024-11-07_15h07.53.328,Word Priming,2024.1.5,None,2024-11-07 15h08.09.718940 +0530,
