trials.thisRepN,trials.thisTrialN,trials.thisN,trials.thisIndex,thisRow.t,notes,trial.started,num_distr,fixation.started,Target.started,mouse.started,trial.stopped,mouse.x,mouse.y,mouse.leftButton,mouse.midButton,mouse.rightButton,mouse.time,mouse.clicked_name,participant,session,date,expName,psychopyVersion,frameRate,expStart,
0,0,0,0,0.12892490002559498,,0.024216499994508922,10,0.12892490002559498,0.12892490002559498,0.09140420000767335,2.3984308000071906,[-0.03833333333333333],[-0.2966666666666667],[1],[0],[0],[2.306087300006766],['Target'],03,001,2024-10-09_13h39.14.996,3.0 search,2024.1.5,None,2024-10-09 13h39.30.540582 +0530,
1,0,1,0,2.5096506000263616,,2.407571099989582,10,2.5096506000263616,2.5096506000263616,0.06484409997938201,4.644092799979262,[-0.435],[-0.43666666666666665],[1],[0],[0],[2.1728047999786213],['Target'],03,001,2024-10-09_13h39.14.996,3.0 search,2024.1.5,None,2024-10-09 13h39.30.540582 +0530,
2,0,2,0,4.72279199998593,,4.648293000005651,10,4.72279199998593,4.72279199998593,0.04929460003040731,6.658918700006325,[0.18833333333333332],[0.2916666666666667],[1],[0],[0],[1.9617738000233658],['Target'],03,001,2024-10-09_13h39.14.996,3.0 search,2024.1.5,None,2024-10-09 13h39.30.540582 +0530,
3,0,3,0,6.75239799998235,,6.664348100021016,10,6.75239799998235,6.75239799998235,0.052278999995905906,8.656769900000654,[0.15666666666666668],[-0.4483333333333333],[1],[0],[0],[1.9405272000003606],['Target'],03,001,2024-10-09_13h39.14.996,3.0 search,2024.1.5,None,2024-10-09 13h39.30.540582 +0530,
4,0,4,0,8.716116700030398,,8.662352700019255,5,8.716116700030398,8.716116700030398,0.02673570002662018,10.36980779998703,[-0.27],[0.14166666666666666],[1],[0],[0],[1.6811915000434965],['Target'],03,001,2024-10-09_13h39.14.996,3.0 search,2024.1.5,None,2024-10-09 13h39.30.540582 +0530,
5,0,5,0,10.430093700008001,,10.376611399988178,5,10.430093700008001,10.430093700008001,0.033332400023937225,11.785127000010107,[0.29833333333333334],[0.4216666666666667],[1],[0],[0],[1.376348500023596],['Target'],03,001,2024-10-09_13h39.14.996,3.0 search,2024.1.5,None,2024-10-09 13h39.30.540582 +0530,
6,0,6,0,11.844448200019542,,11.79308289999608,5,11.844448200019542,11.844448200019542,0.028662900032941252,13.696930499980226,[0.2966666666666667],[0.043333333333333335],[1],[0],[0],[1.8764798999764025],['Target'],03,001,2024-10-09_13h39.14.996,3.0 search,2024.1.5,None,2024-10-09 13h39.30.540582 +0530,
7,0,7,0,13.79136189998826,,13.701817299996037,10,13.79136189998826,13.79136189998826,0.063884400005918,15.495723000029102,[-0.235],[0.32666666666666666],[1],[0],[0],[1.7307185999816284],['Target'],03,001,2024-10-09_13h39.14.996,3.0 search,2024.1.5,None,2024-10-09 13h39.30.540582 +0530,
8,0,8,0,15.555280400032643,,15.503889099985827,5,15.555280400032643,15.555280400032643,0.029463900020346045,17.473723000031896,[-0.11666666666666667],[0.4533333333333333],[1],[0],[0],[1.94178249995457],['Target'],03,001,2024-10-09_13h39.14.996,3.0 search,2024.1.5,None,2024-10-09 13h39.30.540582 +0530,
9,0,9,0,17.568649100023322,,17.480613099993207,10,17.568649100023322,17.568649100023322,0.057006799965165555,19.540092699986417,[0.4266666666666667],[-0.2633333333333333],[1],[0],[0],[2.003731200005859],['Target'],03,001,2024-10-09_13h39.14.996,3.0 search,2024.1.5,None,2024-10-09 13h39.30.540582 +0530,
10,0,10,0,19.598678299982566,,19.548568700032774,5,19.598678299982566,19.598678299982566,0.0312497999984771,21.25412920000963,[-0.20333333333333334],[-0.03333333333333333],[1],[0],[0],[1.6757564999861643],['Target'],03,001,2024-10-09_13h39.14.996,3.0 search,2024.1.5,None,2024-10-09 13h39.30.540582 +0530,
11,0,11,0,21.329239499988034,,21.25995380000677,10,21.329239499988034,21.329239499988034,0.046825099969282746,23.81561380001949,[0.31333333333333335],[0.3983333333333333],[1],[0],[0],[2.509504299960099],['Target'],03,001,2024-10-09_13h39.14.996,3.0 search,2024.1.5,None,2024-10-09 13h39.30.540582 +0530,
12,0,12,0,23.87517509999452,,23.82171270000981,5,23.87517509999452,23.87517509999452,0.028517000027932227,25.960022500017658,[-0.3283333333333333],[-0.37833333333333335],[1],[0],[0],[2.1107958999928087],['Target'],03,001,2024-10-09_13h39.14.996,3.0 search,2024.1.5,None,2024-10-09 13h39.30.540582 +0530,
13,0,13,0,26.038382500002626,,25.96504390001064,10,26.038382500002626,26.038382500002626,0.04913020000094548,27.67574069998227,[0.125],[0.006666666666666667],[1],[0],[0],[1.6621646000421606],['Target'],03,001,2024-10-09_13h39.14.996,3.0 search,2024.1.5,None,2024-10-09 13h39.30.540582 +0530,
14,0,14,0,27.75194600003306,,27.679912900028285,10,27.75194600003306,27.75194600003306,0.04434270004276186,29.60317269997904,[-0.37166666666666665],[-0.13833333333333334],[1],[0],[0],[1.8794700000435114],['Target'],03,001,2024-10-09_13h39.14.996,3.0 search,2024.1.5,None,2024-10-09 13h39.30.540582 +0530,
15,0,15,0,29.648859500011895,,29.608255799976178,5,29.648859500011895,29.648859500011895,0.02415759995346889,31.352590100024827,[0.3283333333333333],[0.46166666666666667],[1],[0],[0],[1.7212663000100292],['Target'],03,001,2024-10-09_13h39.14.996,3.0 search,2024.1.5,None,2024-10-09 13h39.30.540582 +0530,
16,0,16,0,31.429470399976708,,31.355754500022158,10,31.429470399976708,31.429470399976708,0.04066559998318553,33.4641319999937,[-0.4216666666666667],[0.47833333333333333],[1],[0],[0],[2.067952800018247],['Target'],03,001,2024-10-09_13h39.14.996,3.0 search,2024.1.5,None,2024-10-09 13h39.30.540582 +0530,
17,0,17,0,33.54282760003116,,33.468366599990986,10,33.54282760003116,33.54282760003116,0.04076069995062426,35.89345770003274,[0.1],[-0.4033333333333333],[1],[0],[0],[2.385032600024715],['Target'],03,001,2024-10-09_13h39.14.996,3.0 search,2024.1.5,None,2024-10-09 13h39.30.540582 +0530,
18,0,18,0,35.97206860000733,,35.89708520000568,10,35.97206860000733,35.97206860000733,0.042118300043512136,38.09213519998593,[0.37166666666666665],[0.4166666666666667],[1],[0],[0],[2.1532648999709636],['Target'],03,001,2024-10-09_13h39.14.996,3.0 search,2024.1.5,None,2024-10-09 13h39.30.540582 +0530,
19,0,19,0,38.13543820002815,,38.09656169998925,5,38.13543820002815,38.13543820002815,0.02134420000948012,40.08784719998948,[0.205],[0.2916666666666667],[1],[0],[0],[1.9701024999958463],['Target'],03,001,2024-10-09_13h39.14.996,3.0 search,2024.1.5,None,2024-10-09 13h39.30.540582 +0530,
20,0,20,0,40.132475599995814,,40.09115679998649,5,40.132475599995814,40.132475599995814,0.02353509998647496,42.81643340003211,[0.315],[-0.43166666666666664],[1],[0],[0],[2.7019562000059523],['Target'],03,001,2024-10-09_13h39.14.996,3.0 search,2024.1.5,None,2024-10-09 13h39.30.540582 +0530,
21,0,21,0,42.894583499990404,,42.821035799977835,10,42.894583499990404,42.894583499990404,0.045493300014641136,44.64698810002301,[0.3283333333333333],[-0.2633333333333333],[1],[0],[0],[1.7811550999758765],['Target'],03,001,2024-10-09_13h39.14.996,3.0 search,2024.1.5,None,2024-10-09 13h39.30.540582 +0530,
22,0,22,0,44.691695799992885,,44.65020249999361,5,44.691695799992885,44.691695799992885,0.021252900012768805,46.461243900004774,[0.2683333333333333],[0.2866666666666667],[1],[0],[0],[1.7900149999768473],['Target'],03,001,2024-10-09_13h39.14.996,3.0 search,2024.1.5,None,2024-10-09 13h39.30.540582 +0530,
23,0,23,0,46.53871300001629,,46.46584969997639,10,46.53871300001629,46.53871300001629,0.043096100038383156,48.09043159999419,[0.03666666666666667],[0.20666666666666667],[1],[0],[0],[1.581816499994602],['Target'],03,001,2024-10-09_13h39.14.996,3.0 search,2024.1.5,None,2024-10-09 13h39.30.540582 +0530,
24,0,24,0,48.1693721000338,,48.0942301999894,10,48.1693721000338,48.1693721000338,0.03998349996982142,49.90423859999282,[0.043333333333333335],[-0.3016666666666667],[1],[0],[0],[1.7704133000224829],['Target'],03,001,2024-10-09_13h39.14.996,3.0 search,2024.1.5,None,2024-10-09 13h39.30.540582 +0530,
25,0,25,0,49.94984650000697,,49.908230200002436,5,49.94984650000697,49.94984650000697,0.01960589998634532,51.70231469999999,[-0.20666666666666667],[0.25166666666666665],[1],[0],[0],[1.7749487000401132],['Target'],03,001,2024-10-09_13h39.14.996,3.0 search,2024.1.5,None,2024-10-09 13h39.30.540582 +0530,
26,0,26,0,51.763357000018004,,51.706036899995524,10,51.763357000018004,51.763357000018004,0.03994659997988492,53.99804829998175,[0.3883333333333333],[-0.2866666666666667],[1],[0],[0],[2.252604200039059],['Target'],03,001,2024-10-09_13h39.14.996,3.0 search,2024.1.5,None,2024-10-09 13h39.30.540582 +0530,
27,0,27,0,54.043300200020894,,54.002652499999385,5,54.043300200020894,54.043300200020894,0.023974800016731024,55.49801290000323,[0.13666666666666666],[0.21333333333333335],[1],[0],[0],[1.4723448000149801],['Target'],03,001,2024-10-09_13h39.14.996,3.0 search,2024.1.5,None,2024-10-09 13h39.30.540582 +0530,
28,0,28,0,55.55730659997789,,55.50487780000549,10,55.55730659997789,55.55730659997789,0.036472100007813424,57.19318330002716,[-0.42333333333333334],[0.2733333333333333],[1],[0],[0],[1.6529877000139095],['Target'],03,001,2024-10-09_13h39.14.996,3.0 search,2024.1.5,None,2024-10-09 13h39.30.540582 +0530,
29,0,29,0,57.23809759999858,,57.196325800032355,5,57.23809759999858,57.23809759999858,0.021431999979540706,59.4409954000148,[0.023333333333333334],[-0.028333333333333332],[1],[0],[0],[2.2235074000200257],['Target'],03,001,2024-10-09_13h39.14.996,3.0 search,2024.1.5,None,2024-10-09 13h39.30.540582 +0530,
30,0,30,0,59.4845172999776,,59.44721890002256,5,59.4845172999776,59.4845172999776,0.02305799996247515,61.555862199980766,[0.10333333333333333],[-0.2966666666666667],[1],[0],[0],[2.08627329999581],['Target'],03,001,2024-10-09_13h39.14.996,3.0 search,2024.1.5,None,2024-10-09 13h39.30.540582 +0530,
31,0,31,0,61.59761820000131,,61.561558399989735,5,61.59761820000131,61.59761820000131,0.021347700036130846,63.515071300033014,[-0.455],[0.43833333333333335],[1],[0],[0],[1.9330332999816164],['Target'],03,001,2024-10-09_13h39.14.996,3.0 search,2024.1.5,None,2024-10-09 13h39.30.540582 +0530,
32,0,32,0,63.561384800006635,,63.51920340000652,5,63.561384800006635,63.561384800006635,0.02406719996361062,65.76284250000026,[0.29],[-0.12333333333333334],[1],[0],[0],[2.2198349999962375],['Target'],03,001,2024-10-09_13h39.14.996,3.0 search,2024.1.5,None,2024-10-09 13h39.30.540582 +0530,
33,0,33,0,65.84113379998598,,65.76732799998717,10,65.84113379998598,65.84113379998598,0.04369570000562817,67.80863779998617,[-0.27166666666666667],[0.48333333333333334],[1],[0],[0],[1.9981130000087433],['Target'],03,001,2024-10-09_13h39.14.996,3.0 search,2024.1.5,None,2024-10-09 13h39.30.540582 +0530,
34,0,34,0,67.88792000000831,,67.81194330001017,10,67.88792000000831,67.88792000000831,0.04459030000725761,70.15603130002273,[0.3566666666666667],[-0.13166666666666665],[1],[0],[0],[2.299823099980131],['Target'],03,001,2024-10-09_13h39.14.996,3.0 search,2024.1.5,None,2024-10-09 13h39.30.540582 +0530,
35,0,35,0,70.23400190001121,,70.15942470001755,10,70.23400190001121,70.23400190001121,0.042128900007810444,71.91965509997681,[0.24833333333333332],[-0.17833333333333334],[1],[0],[0],[1.7183879999793135],['Target'],03,001,2024-10-09_13h39.14.996,3.0 search,2024.1.5,None,2024-10-09 13h39.30.540582 +0530,
36,0,36,0,71.96471949998522,,71.92529490002198,5,71.96471949998522,71.96471949998522,0.023992100032046437,74.31872400001157,[0.21166666666666667],[-0.4866666666666667],[1],[0],[0],[2.3705460999626666],['Target'],03,001,2024-10-09_13h39.14.996,3.0 search,2024.1.5,None,2024-10-09 13h39.30.540582 +0530,
37,0,37,0,74.41091450001113,,74.32655519997934,10,74.41091450001113,74.41091450001113,0.05063389998394996,76.04656059999252,[-0.19666666666666666],[0.03333333333333333],[1],[0],[0],[1.6706785999704152],['Target'],03,001,2024-10-09_13h39.14.996,3.0 search,2024.1.5,None,2024-10-09 13h39.30.540582 +0530,
38,0,38,0,76.10829020000529,,76.05123400001321,5,76.10829020000529,76.10829020000529,0.02808679995359853,78.09420400002273,[-0.2733333333333333],[0.23666666666666666],[1],[0],[0],[2.0151199999963865],['Target'],03,001,2024-10-09_13h39.14.996,3.0 search,2024.1.5,None,2024-10-09 13h39.30.540582 +0530,
39,0,39,0,78.15496580000035,,78.09974919998785,5,78.15496580000035,78.15496580000035,0.031034599989652634,79.69267100002617,[-0.43333333333333335],[0.06],[1],[0],[0],[1.5628899000003003],['Target'],03,001,2024-10-09_13h39.14.996,3.0 search,2024.1.5,None,2024-10-09 13h39.30.540582 +0530,
40,0,40,0,79.75231840001652,,79.69997249997687,5,79.75231840001652,79.75231840001652,0.026127499993890524,81.2236877999967,[-0.3016666666666667],[0.29333333333333333],[1],[0],[0],[1.4987584999762475],['Target'],03,001,2024-10-09_13h39.14.996,3.0 search,2024.1.5,None,2024-10-09 13h39.30.540582 +0530,
41,0,41,0,81.31647840002552,,81.23125389998313,10,81.31647840002552,81.31647840002552,0.05799739999929443,83.21927900001174,[0.05333333333333334],[-0.30666666666666664],[1],[0],[0],[1.931191099982243],['Target'],03,001,2024-10-09_13h39.14.996,3.0 search,2024.1.5,None,2024-10-09 13h39.30.540582 +0530,
42,0,42,0,83.27977979998104,,83.22637410002062,5,83.27977979998104,83.27977979998104,0.02516810002271086,85.29915430000983,[0.18],[0.11666666666666667],[1],[0],[0],[2.0484385000308976],['Target'],03,001,2024-10-09_13h39.14.996,3.0 search,2024.1.5,None,2024-10-09 13h39.30.540582 +0530,
43,0,43,0,85.34338750003371,,85.30234400002519,5,85.34338750003371,85.34338750003371,0.02335899998433888,87.27889279997908,[-0.29833333333333334],[0.41333333333333333],[1],[0],[0],[1.9531880000140518],['Target'],03,001,2024-10-09_13h39.14.996,3.0 search,2024.1.5,None,2024-10-09 13h39.30.540582 +0530,
44,0,44,0,87.32311830000253,,87.2824311000295,5,87.32311830000253,87.32311830000253,0.021273599995765835,89.2464381000027,[0.07166666666666667],[-0.47],[1],[0],[0],[1.9427805999876],['Target'],03,001,2024-10-09_13h39.14.996,3.0 search,2024.1.5,None,2024-10-09 13h39.30.540582 +0530,
45,0,45,0,89.32112330000382,,89.25522300001467,5,89.32112330000382,89.32112330000382,0.033889400016050786,91.10522939998191,[-0.30666666666666664],[-0.07333333333333333],[1],[0],[0],[1.8179358000052162],['Target'],03,001,2024-10-09_13h39.14.996,3.0 search,2024.1.5,None,2024-10-09 13h39.30.540582 +0530,
46,0,46,0,91.16702380002243,,91.10941829998046,10,91.16702380002243,91.16702380002243,0.03858809999655932,92.96861229999922,[0.25833333333333336],[0.4216666666666667],[1],[0],[0],[1.8210751000442542],['Target'],03,001,2024-10-09_13h39.14.996,3.0 search,2024.1.5,None,2024-10-09 13h39.30.540582 +0530,
47,0,47,0,93.04744270001538,,92.97305279999273,10,93.04744270001538,93.04744270001538,0.04519809997873381,94.65204319998156,[-0.04666666666666667],[-0.135],[1],[0],[0],[1.6340259999851696],['Target'],03,001,2024-10-09_13h39.14.996,3.0 search,2024.1.5,None,2024-10-09 13h39.30.540582 +0530,
48,0,48,0,94.72803070000373,,94.6592621000018,10,94.72803070000373,94.72803070000373,0.03674859995953739,96.53092190000461,[0.3283333333333333],[0.2733333333333333],[1],[0],[0],[1.836097699997481],['Target'],03,001,2024-10-09_13h39.14.996,3.0 search,2024.1.5,None,2024-10-09 13h39.30.540582 +0530,
49,0,49,0,96.62521570001263,,96.53460630000336,10,96.62521570001263,96.62521570001263,0.0582303999690339,98.17891870002495,[-0.47833333333333333],[-0.07166666666666667],[1],[0],[0],[1.5862768000224605],['Target'],03,001,2024-10-09_13h39.14.996,3.0 search,2024.1.5,None,2024-10-09 13h39.30.540582 +0530,
50,0,50,0,98.27292279998073,,98.18426499998895,10,98.27292279998073,98.27292279998073,0.05126199999358505,100.50760910002282,[0.455],[-0.06],[1],[0],[0],[2.272657399997115],['Target'],03,001,2024-10-09_13h39.14.996,3.0 search,2024.1.5,None,2024-10-09 13h39.30.540582 +0530,
51,0,51,0,100.60232210002141,,100.51554140000371,10,100.60232210002141,100.60232210002141,0.05676039995159954,102.80525370000396,[-0.22333333333333333],[0.195],[1],[0],[0],[2.2340939000132494],['Target'],03,001,2024-10-09_13h39.14.996,3.0 search,2024.1.5,None,2024-10-09 13h39.30.540582 +0530,
52,0,52,0,102.8986723999842,,102.81123470002785,10,102.8986723999842,102.8986723999842,0.052162199979647994,105.2669277000241,[0.345],[-0.15333333333333332],[1],[0],[0],[2.404328800039366],['Target'],03,001,2024-10-09_13h39.14.996,3.0 search,2024.1.5,None,2024-10-09 13h39.30.540582 +0530,
53,0,53,0,105.36137589998543,,105.27146010001888,10,105.36137589998543,105.36137589998543,0.05651379999471828,107.29666110000107,[0.18833333333333332],[0.36833333333333335],[1],[0],[0],[1.96911949996138],['Target'],03,001,2024-10-09_13h39.14.996,3.0 search,2024.1.5,None,2024-10-09 13h39.30.540582 +0530,
54,0,54,0,107.37482710002223,,107.30334260000382,10,107.37482710002223,107.37482710002223,0.04940969997551292,108.944312800013,[0.2633333333333333],[0.17333333333333334],[1],[0],[0],[1.5925966000068001],['Target'],03,001,2024-10-09_13h39.14.996,3.0 search,2024.1.5,None,2024-10-09 13h39.30.540582 +0530,
55,0,55,0,109.03887940000277,,108.94807149999542,10,109.03887940000277,109.03887940000277,0.05364769999869168,111.35973349999404,[-0.12666666666666668],[0.14166666666666666],[1],[0],[0],[2.3579839000012726],['Target'],03,001,2024-10-09_13h39.14.996,3.0 search,2024.1.5,None,2024-10-09 13h39.30.540582 +0530,
56,0,56,0,111.41863510000985,,111.36603779997677,5,111.41863510000985,111.41863510000985,0.02643490000627935,113.0219003999955,[0.325],[0.31833333333333336],[1],[0],[0],[1.630361199961044],['Target'],03,001,2024-10-09_13h39.14.996,3.0 search,2024.1.5,None,2024-10-09 13h39.30.540582 +0530,
57,0,57,0,113.0827689000289,,113.02859589998843,5,113.0827689000289,113.0827689000289,0.030418000009376556,115.98372570000356,[-0.27666666666666667],[-0.4766666666666667],[1],[0],[0],[2.925992199976463],['Target'],03,001,2024-10-09_13h39.14.996,3.0 search,2024.1.5,None,2024-10-09 13h39.30.540582 +0530,
58,0,58,0,116.06056489999173,,115.9882924000267,10,116.06056489999173,116.06056489999173,0.04728110000723973,118.39532230002806,[-0.4666666666666667],[0.4683333333333333],[1],[0],[0],[2.360167399980128],['Target'],03,001,2024-10-09_13h39.14.996,3.0 search,2024.1.5,None,2024-10-09 13h39.30.540582 +0530,
59,0,59,0,118.47384629998123,,118.40013389999513,10,118.47384629998123,118.47384629998123,0.05165430001216009,120.34227969998028,[0.09166666666666666],[0.47333333333333333],[1],[0],[0],[1.891862599994056],['Target'],03,001,2024-10-09_13h39.14.996,3.0 search,2024.1.5,None,2024-10-09 13h39.30.540582 +0530,
60,0,60,0,120.3870269000181,,120.345914000005,5,120.3870269000181,120.3870269000181,0.02419029996963218,122.27517789998092,[0.2966666666666667],[0.2916666666666667],[1],[0],[0],[1.905345400038641],['Target'],03,001,2024-10-09_13h39.14.996,3.0 search,2024.1.5,None,2024-10-09 13h39.30.540582 +0530,
61,0,61,0,122.35068789997604,,122.28013500000816,10,122.35068789997604,122.35068789997604,0.04853929998353124,123.68829800002277,[0.3433333333333333],[0.17833333333333334],[1],[0],[0],[1.3605721999774687],['Target'],03,001,2024-10-09_13h39.14.996,3.0 search,2024.1.5,None,2024-10-09 13h39.30.540582 +0530,
62,0,62,0,123.78181220003171,,123.69705150002846,10,123.78181220003171,123.78181220003171,0.05773649999173358,125.75131880003028,[-0.19833333333333333],[-0.42],[1],[0],[0],[1.9983574000070803],['Target'],03,001,2024-10-09_13h39.14.996,3.0 search,2024.1.5,None,2024-10-09 13h39.30.540582 +0530,
63,0,63,0,125.82831870001974,,125.75627630000236,10,125.82831870001974,125.82831870001974,0.04745529999490827,127.5479301000014,[0.03833333333333333],[-0.155],[1],[0],[0],[1.7454238999634981],['Target'],03,001,2024-10-09_13h39.14.996,3.0 search,2024.1.5,None,2024-10-09 13h39.30.540582 +0530,
64,0,64,0,127.59227269998519,,127.55242920003366,5,127.59227269998519,127.59227269998519,0.02356499998131767,129.66073170001619,[-0.23],[0.425],[1],[0],[0],[2.085786800016649],['Target'],03,001,2024-10-09_13h39.14.996,3.0 search,2024.1.5,None,2024-10-09 13h39.30.540582 +0530,
65,0,65,0,129.70558120001806,,129.66697620000923,5,129.70558120001806,129.70558120001806,0.025625200010836124,131.2413174000103,[-0.475],[0.24],[1],[0],[0],[1.549398300005123],['Target'],03,001,2024-10-09_13h39.14.996,3.0 search,2024.1.5,None,2024-10-09 13h39.30.540582 +0530,
66,0,66,0,131.2866304999916,,131.2465508999885,5,131.2866304999916,131.2866304999916,0.024509900016710162,133.2065539000323,[0.4266666666666667],[-0.058333333333333334],[1],[0],[0],[1.9359613999840803],['Target'],03,001,2024-10-09_13h39.14.996,3.0 search,2024.1.5,None,2024-10-09 13h39.30.540582 +0530,
67,0,67,0,133.28301459999057,,133.21053480001865,10,133.28301459999057,133.28301459999057,0.04631599999265745,135.35263280000072,[0.15666666666666668],[0.3283333333333333],[1],[0],[0],[2.096145900024567],['Target'],03,001,2024-10-09_13h39.14.996,3.0 search,2024.1.5,None,2024-10-09 13h39.30.540582 +0530,
68,0,68,0,135.42962830001488,,135.35881370003335,10,135.42962830001488,135.42962830001488,0.04795820004073903,137.16551389999222,[0.19833333333333333],[0.4033333333333333],[1],[0],[0],[1.75912880001124],['Target'],03,001,2024-10-09_13h39.14.996,3.0 search,2024.1.5,None,2024-10-09 13h39.30.540582 +0530,
69,0,69,0,137.21014470001683,,137.17000189999817,5,137.21014470001683,137.21014470001683,0.0259442999958992,140.6117033000337,[-0.46],[-0.4816666666666667],[1],[0],[0],[3.416255100048147],['Target'],03,001,2024-10-09_13h39.14.996,3.0 search,2024.1.5,None,2024-10-09 13h39.30.540582 +0530,
70,0,70,0,140.67122459999518,,140.6174964000238,5,140.67122459999518,140.67122459999518,0.02912700001616031,142.8732162999804,[0.30666666666666664],[-0.33666666666666667],[1],[0],[0],[2.227626700012479],['Target'],03,001,2024-10-09_13h39.14.996,3.0 search,2024.1.5,None,2024-10-09 13h39.30.540582 +0530,
71,0,71,0,142.9513095000293,,142.87849809997715,10,142.9513095000293,142.9513095000293,0.05153259995859116,144.6211599999806,[0.365],[0.24333333333333335],[1],[0],[0],[1.692329100042116],['Target'],03,001,2024-10-09_13h39.14.996,3.0 search,2024.1.5,None,2024-10-09 13h39.30.540582 +0530,
72,0,72,0,144.68179090000922,,144.62697420001496,5,144.68179090000922,144.68179090000922,0.027862199989613146,146.60064279998187,[0.485],[-0.08666666666666667],[1],[0],[0],[1.9465770999668166],['Target'],03,001,2024-10-09_13h39.14.996,3.0 search,2024.1.5,None,2024-10-09 13h39.30.540582 +0530,
73,0,73,0,146.64486380002927,,146.60559029999422,5,146.64486380002927,146.64486380002927,0.024589200038462877,148.31575150002027,[-0.42],[0.4266666666666667],[1],[0],[0],[1.6855534000205807],['Target'],03,001,2024-10-09_13h39.14.996,3.0 search,2024.1.5,None,2024-10-09 13h39.30.540582 +0530,
74,0,74,0,148.35896240000147,,148.32099859998561,5,148.35896240000147,148.35896240000147,0.024448300013318658,150.01158589997794,[0.43166666666666664],[0.06833333333333333],[1],[0],[0],[1.6668093000189401],['Target'],03,001,2024-10-09_13h39.14.996,3.0 search,2024.1.5,None,2024-10-09 13h39.30.540582 +0530,
75,0,75,0,150.08946460002335,,150.01701010001125,10,150.08946460002335,150.08946460002335,0.049313199997413903,152.2242795000202,[0.19666666666666666],[-0.26666666666666666],[1],[0],[0],[2.1587563999928534],['Target'],03,001,2024-10-09_13h39.14.996,3.0 search,2024.1.5,None,2024-10-09 13h39.30.540582 +0530,
76,0,76,0,152.30267270002514,,152.22864019998815,10,152.30267270002514,152.30267270002514,0.04847360000712797,154.1058179999818,[-0.26],[0.12],[1],[0],[0],[1.8292263999464922],['Target'],03,001,2024-10-09_13h39.14.996,3.0 search,2024.1.5,None,2024-10-09 13h39.30.540582 +0530,
77,0,77,0,154.18319700000575,,154.11231759999646,10,154.18319700000575,154.18319700000575,0.04932390002068132,156.15161160001298,[0.36833333333333335],[0.37],[1],[0],[0],[1.9910351000144146],['Target'],03,001,2024-10-09_13h39.14.996,3.0 search,2024.1.5,None,2024-10-09 13h39.30.540582 +0530,
78,0,78,0,156.22997939999914,,156.15580750000663,10,156.22997939999914,156.22997939999914,0.04630919999908656,159.6632901999983,[0.37333333333333335],[-0.325],[1],[0],[0],[3.461516900046263],['Target'],03,001,2024-10-09_13h39.14.996,3.0 search,2024.1.5,None,2024-10-09 13h39.30.540582 +0530,
79,0,79,0,159.72428969998145,,159.66866020002635,5,159.72428969998145,159.72428969998145,0.025886000017635524,162.00899429997662,[0.4266666666666667],[-0.06],[1],[0],[0],[2.3149322000099346],['Target'],03,001,2024-10-09_13h39.14.996,3.0 search,2024.1.5,None,2024-10-09 13h39.30.540582 +0530,
80,0,80,0,162.10385590000078,,162.01568780001253,10,162.10385590000078,162.10385590000078,0.05287090002093464,165.0214598000166,[0.395],[-0.3016666666666667],[1],[0],[0],[2.953861100017093],['Target'],03,001,2024-10-09_13h39.14.996,3.0 search,2024.1.5,None,2024-10-09 13h39.30.540582 +0530,
81,0,81,0,165.09929980000015,,165.02742649998982,10,165.09929980000015,165.09929980000015,0.052331199985928833,166.88438080000924,[0.4533333333333333],[0.03333333333333333],[1],[0],[0],[1.8057334999903105],['Target'],03,001,2024-10-09_13h39.14.996,3.0 search,2024.1.5,None,2024-10-09 13h39.30.540582 +0530,
82,0,82,0,166.9459696999984,,166.89060520002386,5,166.9459696999984,166.9459696999984,0.026865099964197725,168.20018260000506,[-0.4716666666666667],[0.16],[1],[0],[0],[1.2832319000153802],['Target'],03,001,2024-10-09_13h39.14.996,3.0 search,2024.1.5,None,2024-10-09 13h39.30.540582 +0530,
83,0,83,0,168.2605532000307,,168.20496489998186,5,168.2605532000307,168.2605532000307,0.02600980002898723,169.76439510000637,[-0.3283333333333333],[0.3233333333333333],[1],[0],[0],[1.533604700001888],['Target'],03,001,2024-10-09_13h39.14.996,3.0 search,2024.1.5,None,2024-10-09 13h39.30.540582 +0530,
84,0,84,0,169.82450779998908,,169.76987810002174,5,169.82450779998908,169.82450779998908,0.02833979995921254,171.82760449999478,[-0.42333333333333334],[-0.06333333333333334],[1],[0],[0],[2.030097900016699],['Target'],03,001,2024-10-09_13h39.14.996,3.0 search,2024.1.5,None,2024-10-09 13h39.30.540582 +0530,
85,0,85,0,171.90472589997808,,171.83188499999233,10,171.90472589997808,171.90472589997808,0.04859820002457127,175.95271290000528,[-0.09666666666666666],[-0.39166666666666666],[1],[0],[0],[4.072566299990285],['Target'],03,001,2024-10-09_13h39.14.996,3.0 search,2024.1.5,None,2024-10-09 13h39.30.540582 +0530,
86,0,86,0,176.0313962000073,,175.958111200016,10,176.0313962000073,176.0313962000073,0.04922579997219145,178.33278190001147,[0.125],[-0.3433333333333333],[1],[0],[0],[2.326232999970671],['Target'],03,001,2024-10-09_13h39.14.996,3.0 search,2024.1.5,None,2024-10-09 13h39.30.540582 +0530,
87,0,87,0,178.4107898999937,,178.3364717999939,10,178.4107898999937,178.4107898999937,0.04603540000971407,180.64786199998343,[0.23166666666666666],[0.42833333333333334],[1],[0],[0],[2.265780099958647],['Target'],03,001,2024-10-09_13h39.14.996,3.0 search,2024.1.5,None,2024-10-09 13h39.30.540582 +0530,
88,0,88,0,180.72401240002364,,180.65231849998236,10,180.72401240002364,180.72401240002364,0.04699219996109605,182.8266231000307,[0.39166666666666666],[-0.2833333333333333],[1],[0],[0],[2.1276347000384703],['Target'],03,001,2024-10-09_13h39.14.996,3.0 search,2024.1.5,None,2024-10-09 13h39.30.540582 +0530,
89,0,89,0,182.90354149998166,,182.83211399998982,10,182.90354149998166,182.90354149998166,0.04886009998153895,184.67456790001597,[-0.41333333333333333],[0.09833333333333333],[1],[0],[0],[1.7942565999692306],['Target'],03,001,2024-10-09_13h39.14.996,3.0 search,2024.1.5,None,2024-10-09 13h39.30.540582 +0530,
90,0,90,0,184.73420180001995,,184.68394840002293,5,184.73420180001995,184.73420180001995,0.030585100001189858,187.05497400002787,[-0.13333333333333333],[0.21833333333333332],[1],[0],[0],[2.3422148000099696],['Target'],03,001,2024-10-09_13h39.14.996,3.0 search,2024.1.5,None,2024-10-09 13h39.30.540582 +0530,
91,0,91,0,187.11353010003222,,187.0603378000087,5,187.11353010003222,187.11353010003222,0.024983800016343594,189.33257660001982,[0.055],[-0.3],[1],[0],[0],[2.2480777999735437],['Target'],03,001,2024-10-09_13h39.14.996,3.0 search,2024.1.5,None,2024-10-09 13h39.30.540582 +0530,
92,0,92,0,189.3932247000048,,189.3383403000189,5,189.3932247000048,189.3932247000048,0.026869799999985844,191.68008269998245,[-0.2733333333333333],[0.49666666666666665],[1],[0],[0],[2.315480599994771],['Target'],03,001,2024-10-09_13h39.14.996,3.0 search,2024.1.5,None,2024-10-09 13h39.30.540582 +0530,
93,0,93,0,191.75640690000728,,191.6855526000145,10,191.75640690000728,191.75640690000728,0.04556050000246614,193.72543609997956,[0.185],[-0.008333333333333333],[1],[0],[0],[1.9948854999965988],['Target'],03,001,2024-10-09_13h39.14.996,3.0 search,2024.1.5,None,2024-10-09 13h39.30.540582 +0530,
94,0,94,0,193.80291480000596,,193.72987819998525,10,193.80291480000596,193.80291480000596,0.04926619998877868,195.6054175000172,[0.20833333333333334],[0.4633333333333333],[1],[0],[0],[1.8267799000022933],['Target'],03,001,2024-10-09_13h39.14.996,3.0 search,2024.1.5,None,2024-10-09 13h39.30.540582 +0530,
95,0,95,0,195.6833163999836,,195.61256310000317,10,195.6833163999836,195.6833163999836,0.049877499986905605,197.25469099998008,[0.01],[0.08166666666666667],[1],[0],[0],[1.5931392999482341],['Target'],03,001,2024-10-09_13h39.14.996,3.0 search,2024.1.5,None,2024-10-09 13h39.30.540582 +0530,
96,0,96,0,197.33070460002637,,197.25809620000655,10,197.33070460002637,197.33070460002637,0.045446200005244464,198.66786440002033,[-0.38333333333333336],[0.22333333333333333],[1],[0],[0],[1.3647230999777094],['Target'],03,001,2024-10-09_13h39.14.996,3.0 search,2024.1.5,None,2024-10-09 13h39.30.540582 +0530,
97,0,97,0,198.74507790000644,,198.67267870000796,10,198.74507790000644,198.74507790000644,0.04892420000396669,200.3829372000182,[-0.4683333333333333],[0.19666666666666666],[1],[0],[0],[1.6616967000300065],['Target'],03,001,2024-10-09_13h39.14.996,3.0 search,2024.1.5,None,2024-10-09 13h39.30.540582 +0530,
98,0,98,0,200.44234720000532,,200.3909386000014,5,200.44234720000532,200.44234720000532,0.02720360003877431,201.84543240000494,[-0.395],[0.15333333333333332],[1],[0],[0],[1.4285937999957241],['Target'],03,001,2024-10-09_13h39.14.996,3.0 search,2024.1.5,None,2024-10-09 13h39.30.540582 +0530,
99,0,99,0,201.8900891999947,,201.8516537999967,5,201.8900891999947,201.8900891999947,0.024748400028329343,204.12749839999015,[-0.13333333333333333],[-0.13666666666666666],[1],[0],[0],[2.2517294000135735],['Target'],03,001,2024-10-09_13h39.14.996,3.0 search,2024.1.5,None,2024-10-09 13h39.30.540582 +0530,
100,0,100,0,204.1861672999803,,204.13118090003263,5,204.1861672999803,204.1861672999803,0.02558440004941076,205.5734973999788,[-0.28833333333333333],[0.415],[1],[0],[0],[1.416996999992989],['Target'],03,001,2024-10-09_13h39.14.996,3.0 search,2024.1.5,None,2024-10-09 13h39.30.540582 +0530,
101,0,101,0,205.65055500000017,,205.58021220000228,10,205.65055500000017,205.65055500000017,0.045435399981215596,208.03593900002306,[0.043333333333333335],[0.02666666666666667],[1],[0],[0],[2.4110802999930456],['Target'],03,001,2024-10-09_13h39.14.996,3.0 search,2024.1.5,None,2024-10-09 13h39.30.540582 +0530,
102,0,102,0,208.1132563999854,,208.04018170002382,10,208.1132563999854,208.1132563999854,0.04829910001717508,209.88291919999756,[-0.4066666666666667],[0.225],[1],[0],[0],[1.7948639000533149],['Target'],03,001,2024-10-09_13h39.14.996,3.0 search,2024.1.5,None,2024-10-09 13h39.30.540582 +0530,
103,0,103,0,209.9271191000007,,209.88672220002627,5,209.9271191000007,209.9271191000007,0.02460489998338744,211.9961357000284,[-0.38666666666666666],[0.08666666666666667],[1],[0],[0],[2.0853188999462873],['Target'],03,001,2024-10-09_13h39.14.996,3.0 search,2024.1.5,None,2024-10-09 13h39.30.540582 +0530,
104,0,104,0,212.0737736999872,,212.0022134000319,10,212.0737736999872,212.0737736999872,0.04738449997967109,213.9413690000074,[-0.26166666666666666],[-0.2],[1],[0],[0],[1.892458499991335],['Target'],03,001,2024-10-09_13h39.14.996,3.0 search,2024.1.5,None,2024-10-09 13h39.30.540582 +0530,
105,0,105,0,213.98717919999035,,213.94462080002995,5,213.98717919999035,213.98717919999035,0.02259020000929013,216.50645849999273,[0.04],[0.41833333333333333],[1],[0],[0],[2.539576200011652],['Target'],03,001,2024-10-09_13h39.14.996,3.0 search,2024.1.5,None,2024-10-09 13h39.30.540582 +0530,
106,0,106,0,216.56665960000828,,216.51207340002293,5,216.56665960000828,216.56665960000828,0.028277000004891306,218.46927579998737,[-0.19833333333333333],[0.11],[1],[0],[0],[1.929768999980297],['Target'],03,001,2024-10-09_13h39.14.996,3.0 search,2024.1.5,None,2024-10-09 13h39.30.540582 +0530,
107,0,107,0,218.5632251999923,,218.47616060002474,10,218.5632251999923,218.5632251999923,0.05221029999665916,220.4821478999802,[-0.005],[-0.23666666666666666],[1],[0],[0],[1.954656999965664],['Target'],03,001,2024-10-09_13h39.14.996,3.0 search,2024.1.5,None,2024-10-09 13h39.30.540582 +0530,
108,0,108,0,220.5434743000078,,220.4877055999823,5,220.5434743000078,220.5434743000078,0.03076990001136437,222.646548299992,[0.05333333333333334],[-0.2833333333333333],[1],[0],[0],[2.1289191999821924],['Target'],03,001,2024-10-09_13h39.14.996,3.0 search,2024.1.5,None,2024-10-09 13h39.30.540582 +0530,
109,0,109,0,222.68965810001828,,222.65428429999156,5,222.68965810001828,222.68965810001828,0.02032030001282692,224.54123470000923,[-0.051666666666666666],[0.235],[1],[0],[0],[1.868090400006622],['Target'],03,001,2024-10-09_13h39.14.996,3.0 search,2024.1.5,None,2024-10-09 13h39.30.540582 +0530,
110,0,110,0,224.5865807000082,,224.5453576000291,5,224.5865807000082,224.5865807000082,0.021682499966118485,226.43918009998742,[-0.24333333333333335],[0.10333333333333333],[1],[0],[0],[1.872747699962929],['Target'],03,001,2024-10-09_13h39.14.996,3.0 search,2024.1.5,None,2024-10-09 13h39.30.540582 +0530,
111,0,111,0,226.48359940003138,,226.44266970001627,5,226.48359940003138,226.48359940003138,0.02259740000590682,228.05368020001333,[0.09166666666666666],[-0.33666666666666667],[1],[0],[0],[1.5887936999788508],['Target'],03,001,2024-10-09_13h39.14.996,3.0 search,2024.1.5,None,2024-10-09 13h39.30.540582 +0530,
112,0,112,0,228.0979189000209,,228.0582622999791,5,228.0979189000209,228.0979189000209,0.019409600005019456,229.85188650002237,[-0.07833333333333334],[0.405],[1],[0],[0],[1.7747285999939777],['Target'],03,001,2024-10-09_13h39.14.996,3.0 search,2024.1.5,None,2024-10-09 13h39.30.540582 +0530,
113,0,113,0,229.92820770002436,,229.85645170003409,10,229.92820770002436,229.92820770002436,0.038869199983309954,231.29832920001354,[-0.4266666666666667],[0.22666666666666666],[1],[0],[0],[1.4034962000441737],['Target'],03,001,2024-10-09_13h39.14.996,3.0 search,2024.1.5,None,2024-10-09 13h39.30.540582 +0530,
114,0,114,0,231.3758357000188,,231.30517300002975,10,231.3758357000188,231.3758357000188,0.04442859999835491,233.34580519999145,[0.4066666666666667],[0.25666666666666665],[1],[0],[0],[1.9972069000359625],['Target'],03,001,2024-10-09_13h39.14.996,3.0 search,2024.1.5,None,2024-10-09 13h39.30.540582 +0530,
115,0,115,0,233.4228403000161,,233.35264649998862,10,233.4228403000161,233.4228403000161,0.04094099998474121,235.1257904000231,[0.295],[0.41833333333333333],[1],[0],[0],[1.7332881999900565],['Target'],03,001,2024-10-09_13h39.14.996,3.0 search,2024.1.5,None,2024-10-09 13h39.30.540582 +0530,
116,0,116,0,235.17003350000596,,235.1305911000236,5,235.17003350000596,235.17003350000596,0.020759399980306625,237.220730800007,[-0.4633333333333333],[0.43833333333333335],[1],[0],[0],[2.0700301000033505],['Target'],03,001,2024-10-09_13h39.14.996,3.0 search,2024.1.5,None,2024-10-09 13h39.30.540582 +0530,
117,0,117,0,237.2830667999806,,237.22481630003313,10,237.2830667999806,237.2830667999806,0.041061800031457096,239.98257130000275,[-0.3333333333333333],[-0.385],[1],[0],[0],[2.717195699980948],['Target'],03,001,2024-10-09_13h39.14.996,3.0 search,2024.1.5,None,2024-10-09 13h39.30.540582 +0530,
118,0,118,0,240.02873189997626,,239.9880594999995,5,240.02873189997626,240.02873189997626,0.02642269997159019,243.22757290001027,[0.245],[0.021666666666666667],[1],[0],[0],[3.2141312999883667],['Target'],03,001,2024-10-09_13h39.14.996,3.0 search,2024.1.5,None,2024-10-09 13h39.30.540582 +0530,
119,0,119,0,243.30704360001255,,243.23178500001086,10,243.30704360001255,243.30704360001255,0.046397099969908595,246.59013939998113,[0.008333333333333333],[-0.345],[1],[0],[0],[3.3123521999805234],['Target'],03,001,2024-10-09_13h39.14.996,3.0 search,2024.1.5,None,2024-10-09 13h39.30.540582 +0530,
120,0,120,0,246.63481640000828,,246.59471630002372,5,246.63481640000828,246.63481640000828,0.02292349998606369,248.5204090999905,[0.25833333333333336],[-0.08666666666666667],[1],[0],[0],[1.9031543000019155],['Target'],03,001,2024-10-09_13h39.14.996,3.0 search,2024.1.5,None,2024-10-09 13h39.30.540582 +0530,
121,0,121,0,248.59835079999175,,248.524447600008,10,248.59835079999175,248.59835079999175,0.05006059998413548,251.3649870000081,[-0.32],[-0.18666666666666668],[1],[0],[0],[2.790830400015693],['Target'],03,001,2024-10-09_13h39.14.996,3.0 search,2024.1.5,None,2024-10-09 13h39.30.540582 +0530,
122,0,122,0,251.42700510000577,,251.36822970001958,10,251.42700510000577,251.42700510000577,0.04062699998030439,253.79488840000704,[0.27666666666666667],[-0.31666666666666665],[1],[0],[0],[2.3861925999517553],['Target'],03,001,2024-10-09_13h39.14.996,3.0 search,2024.1.5,None,2024-10-09 13h39.30.540582 +0530,
123,0,123,0,253.85648000001675,,253.80117210000753,10,253.85648000001675,253.85648000001675,0.038485199969727546,256.1247448999784,[-0.14833333333333334],[0.3466666666666667],[1],[0],[0],[2.2855801000259817],['Target'],03,001,2024-10-09_13h39.14.996,3.0 search,2024.1.5,None,2024-10-09 13h39.30.540582 +0530,
124,0,124,0,256.18609209998976,,256.12801639997633,10,256.18609209998976,256.18609209998976,0.037423300032969564,258.7889867000049,[0.02],[-0.02666666666666667],[1],[0],[0],[2.6237548000062816],['Target'],03,001,2024-10-09_13h39.14.996,3.0 search,2024.1.5,None,2024-10-09 13h39.30.540582 +0530,
125,0,125,0,258.83178529998986,,258.7960033999989,5,258.83178529998986,258.83178529998986,0.021103199978824705,260.8005244000233,[0.4716666666666667],[-0.40166666666666667],[1],[0],[0],[1.9847062000189908],['Target'],03,001,2024-10-09_13h39.14.996,3.0 search,2024.1.5,None,2024-10-09 13h39.30.540582 +0530,
126,0,126,0,260.8619212000049,,260.80456710001454,10,260.8619212000049,260.8619212000049,0.038526800053659827,263.64706089999527,[0.37],[0.4866666666666667],[1],[0],[0],[2.8045570999966003],['Target'],03,001,2024-10-09_13h39.14.996,3.0 search,2024.1.5,None,2024-10-09 13h39.30.540582 +0530,
127,0,127,0,263.6908599000308,,263.6504713000031,5,263.6908599000308,263.6908599000308,0.02117209997959435,266.21003600000404,[0.10166666666666667],[-0.26],[1],[0],[0],[2.5385421999963],['Target'],03,001,2024-10-09_13h39.14.996,3.0 search,2024.1.5,None,2024-10-09 13h39.30.540582 +0530,
128,0,128,0,266.25326630001655,,266.21395340003073,5,266.25326630001655,266.25326630001655,0.024036400020122528,268.22445510001853,[0.375],[-0.11166666666666666],[1],[0],[0],[1.9870491999899969],['Target'],03,001,2024-10-09_13h39.14.996,3.0 search,2024.1.5,None,2024-10-09 13h39.30.540582 +0530,
129,0,129,0,268.26661350001814,,268.2300830000313,5,268.26661350001814,268.26661350001814,0.02393540000775829,269.83738729998004,[0.4216666666666667],[0.425],[1],[0],[0],[1.584002000046894],['Target'],03,001,2024-10-09_13h39.14.996,3.0 search,2024.1.5,None,2024-10-09 13h39.30.540582 +0530,
130,0,130,0,269.8807547999895,,269.84324610000476,5,269.8807547999895,269.8807547999895,0.023474199988413602,272.08401970000705,[0.43166666666666664],[0.20333333333333334],[1],[0],[0],[2.2176999999792315],['Target'],03,001,2024-10-09_13h39.14.996,3.0 search,2024.1.5,None,2024-10-09 13h39.30.540582 +0530,
131,0,131,0,272.1272810000228,,272.08786800003145,5,272.1272810000228,272.1272810000228,0.019021700019948184,273.74539659998845,[-0.49],[-0.056666666666666664],[1],[0],[0],[1.6389689000207],['Target'],03,001,2024-10-09_13h39.14.996,3.0 search,2024.1.5,None,2024-10-09 13h39.30.540582 +0530,
132,0,132,0,273.791918300034,,273.7502233000123,5,273.791918300034,273.791918300034,0.020758999977260828,275.3123701000004,[-0.26166666666666666],[0.23333333333333334],[1],[0],[0],[1.54223079996882],['Target'],03,001,2024-10-09_13h39.14.996,3.0 search,2024.1.5,None,2024-10-09 13h39.30.540582 +0530,
133,0,133,0,275.37251580000157,,275.31566309998743,10,275.37251580000157,275.37251580000157,0.032750099955592304,276.9732509999885,[-0.16],[0.023333333333333334],[1],[0],[0],[1.6251914000022225],['Target'],03,001,2024-10-09_13h39.14.996,3.0 search,2024.1.5,None,2024-10-09 13h39.30.540582 +0530,
134,0,134,0,277.0198332000291,,276.9763476999942,5,277.0198332000291,277.0198332000291,0.018390499986708164,278.93890890001785,[0.3383333333333333],[0.20833333333333334],[1],[0],[0],[1.9443371000234038],['Target'],03,001,2024-10-09_13h39.14.996,3.0 search,2024.1.5,None,2024-10-09 13h39.30.540582 +0530,
135,0,135,0,278.9832475000294,,278.94224260002375,5,278.9832475000294,278.9832475000294,0.016418199986219406,280.419744200015,[-0.2],[0.2916666666666667],[1],[0],[0],[1.4612861000350676],['Target'],03,001,2024-10-09_13h39.14.996,3.0 search,2024.1.5,None,2024-10-09 13h39.30.540582 +0530,
136,0,136,0,280.4642168999999,,280.42460389999906,5,280.4642168999999,280.4642168999999,0.017739599978085607,282.41619790002005,[0.41],[-0.25166666666666665],[1],[0],[0],[1.9743695000070147],['Target'],03,001,2024-10-09_13h39.14.996,3.0 search,2024.1.5,None,2024-10-09 13h39.30.540582 +0530,
137,0,137,0,282.4775552999927,,282.41926150000654,10,282.4775552999927,282.4775552999927,0.03326370002469048,285.0953765999875,[-0.16166666666666665],[-0.4166666666666667],[1],[0],[0],[2.6430131000233814],['Target'],03,001,2024-10-09_13h39.14.996,3.0 search,2024.1.5,None,2024-10-09 13h39.30.540582 +0530,
138,0,138,0,285.15669410000555,,285.09826230001636,10,285.15669410000555,285.15669410000555,0.032672900008037686,286.7414851000067,[-0.30333333333333334],[-0.21166666666666667],[1],[0],[0],[1.6107038999907672],['Target'],03,001,2024-10-09_13h39.14.996,3.0 search,2024.1.5,None,2024-10-09 13h39.30.540582 +0530,
139,0,139,0,286.7875127000152,,286.7446321999887,5,286.7875127000152,286.7875127000152,0.017046699998900294,289.02193879999686,[0.37],[-0.2633333333333333],[1],[0],[0],[2.2605094000464305],['Target'],03,001,2024-10-09_13h39.14.996,3.0 search,2024.1.5,None,2024-10-09 13h39.30.540582 +0530,
140,0,140,0,289.08369270002004,,289.02540470001986,10,289.08369270002004,289.08369270002004,0.03197149996412918,290.5876396999811,[0.11],[0.23166666666666666],[1],[0],[0],[1.530373299960047],['Target'],03,001,2024-10-09_13h39.14.996,3.0 search,2024.1.5,None,2024-10-09 13h39.30.540582 +0530,
141,0,141,0,290.6311729000299,,290.59096699999645,5,290.6311729000299,290.6311729000299,0.01794970000628382,292.3831715999986,[0.4683333333333333],[0.31333333333333335],[1],[0],[0],[1.7744772000005469],['Target'],03,001,2024-10-09_13h39.14.996,3.0 search,2024.1.5,None,2024-10-09 13h39.30.540582 +0530,
142,0,142,0,292.42845609999495,,292.38611399999354,5,292.42845609999495,292.42845609999495,0.016362400026991963,294.8128320000251,[-0.23666666666666666],[-0.125],[1],[0],[0],[2.41057239996735],['Target'],03,001,2024-10-09_13h39.14.996,3.0 search,2024.1.5,None,2024-10-09 13h39.30.540582 +0530,
143,0,143,0,294.8744122000062,,294.8161568000214,10,294.8744122000062,294.8744122000062,0.033619599998928607,296.4938825999852,[0.31],[-0.07],[1],[0],[0],[1.6444475000025705],['Target'],03,001,2024-10-09_13h39.14.996,3.0 search,2024.1.5,None,2024-10-09 13h39.30.540582 +0530,
144,0,144,0,296.5548538999865,,296.4969277000055,10,296.5548538999865,296.5548538999865,0.03274229995440692,298.09158409998054,[0.08833333333333333],[0.4066666666666667],[1],[0],[0],[1.5620821999618784],['Target'],03,001,2024-10-09_13h39.14.996,3.0 search,2024.1.5,None,2024-10-09 13h39.30.540582 +0530,
145,0,145,0,298.1358246000018,,298.0947569999844,5,298.1358246000018,298.1358246000018,0.01654350000899285,299.5553004000103,[0.19333333333333333],[0.4216666666666667],[1],[0],[0],[1.4442034999956377],['Target'],03,001,2024-10-09_13h39.14.996,3.0 search,2024.1.5,None,2024-10-09 13h39.30.540582 +0530,
146,0,146,0,299.60026819998166,,299.558395,5,299.60026819998166,299.60026819998166,0.016728400019928813,302.21791060001124,[0.31166666666666665],[-0.455],[1],[0],[0],[2.643008900049608],['Target'],03,001,2024-10-09_13h39.14.996,3.0 search,2024.1.5,None,2024-10-09 13h39.30.540582 +0530,
147,0,147,0,302.2793309999979,,302.2209881999879,10,302.2793309999979,302.2793309999979,0.03234660002635792,304.1476962000015,[-0.48333333333333334],[-0.13166666666666665],[1],[0],[0],[1.8945945999585092],['Target'],03,001,2024-10-09_13h39.14.996,3.0 search,2024.1.5,None,2024-10-09 13h39.30.540582 +0530,
148,0,148,0,304.2094107000157,,304.1508505999809,10,304.2094107000157,304.2094107000157,0.031588500016368926,306.22761230001925,[0.06],[0.2783333333333333],[1],[0],[0],[2.0454212999902666],['Target'],03,001,2024-10-09_13h39.14.996,3.0 search,2024.1.5,None,2024-10-09 13h39.30.540582 +0530,
149,0,149,0,306.272662399977,,306.2307629000279,5,306.272662399977,306.272662399977,0.016499899968039244,308.27483940002276,[-0.095],[0.043333333333333335],[1],[0],[0],[2.027792499982752],['Target'],03,001,2024-10-09_13h39.14.996,3.0 search,2024.1.5,None,2024-10-09 13h39.30.540582 +0530,
150,0,150,0,308.31949870003155,,308.27790270000696,5,308.31949870003155,308.31949870003155,0.016343199997209013,309.8888551000273,[-0.4166666666666667],[0.4683333333333333],[1],[0],[0],[1.5948403000365943],['Target'],03,001,2024-10-09_13h39.14.996,3.0 search,2024.1.5,None,2024-10-09 13h39.30.540582 +0530,
151,0,151,0,309.95038240001304,,309.89191459998256,10,309.95038240001304,309.95038240001304,0.032243299996480346,311.30166110000573,[-0.455],[0.25],[1],[0],[0],[1.377735299989581],['Target'],03,001,2024-10-09_13h39.14.996,3.0 search,2024.1.5,None,2024-10-09 13h39.30.540582 +0530,
152,0,152,0,311.3311424999847,,311.30477819999214,5,311.3311424999847,311.3311424999847,0.01690629997756332,313.5839879999985,[0.475],[-0.355],[1],[0],[0],[2.262508599960711],['Target'],03,001,2024-10-09_13h39.14.996,3.0 search,2024.1.5,None,2024-10-09 13h39.30.540582 +0530,
153,0,153,0,313.6444112000172,,313.58708869997645,10,313.6444112000172,313.6444112000172,0.03183660004287958,315.7132547000074,[0.14666666666666667],[0.10666666666666667],[1],[0],[0],[2.0944979999912903],['Target'],03,001,2024-10-09_13h39.14.996,3.0 search,2024.1.5,None,2024-10-09 13h39.30.540582 +0530,
154,0,154,0,315.75763439998263,,315.71641250001267,5,315.75763439998263,315.75763439998263,0.017289900046307594,318.02557080000406,[0.09666666666666666],[0.3233333333333333],[1],[0],[0],[2.2921091999742202],['Target'],03,001,2024-10-09_13h39.14.996,3.0 search,2024.1.5,None,2024-10-09 13h39.30.540582 +0530,
155,0,155,0,318.0872929000179,,318.0286874999874,10,318.0872929000179,318.0872929000179,0.03163119999226183,319.78772469999967,[0.23833333333333334],[0.175],[1],[0],[0],[1.7276856999960728],['Target'],03,001,2024-10-09_13h39.14.996,3.0 search,2024.1.5,None,2024-10-09 13h39.30.540582 +0530,
156,0,156,0,319.85106720001204,,319.7908633000334,10,319.85106720001204,319.85106720001204,0.031237200018949807,321.9349202000303,[0.24166666666666667],[0.095],[1],[0],[0],[2.113095000036992],['Target'],03,001,2024-10-09_13h39.14.996,3.0 search,2024.1.5,None,2024-10-09 13h39.30.540582 +0530,
157,0,157,0,322.0140049000038,,321.9378752000048,10,322.0140049000038,322.0140049000038,0.04212009999901056,325.5958636000287,[-0.43666666666666665],[-0.47333333333333333],[1],[0],[0],[3.616039099986665],['Target'],03,001,2024-10-09_13h39.14.996,3.0 search,2024.1.5,None,2024-10-09 13h39.30.540582 +0530,
158,0,158,0,325.65841410000576,,325.5989925999893,10,325.65841410000576,325.65841410000576,0.03269029996590689,327.82520389999263,[-0.25333333333333335],[0.18333333333333332],[1],[0],[0],[2.193715200002771],['Target'],03,001,2024-10-09_13h39.14.996,3.0 search,2024.1.5,None,2024-10-09 13h39.30.540582 +0530,
159,0,159,0,327.88835379999364,,327.82829169998877,10,327.88835379999364,327.88835379999364,0.032843399967532605,329.9906413999852,[0.33166666666666667],[-0.4083333333333333],[1],[0],[0],[2.129733900015708],['Target'],03,001,2024-10-09_13h39.14.996,3.0 search,2024.1.5,None,2024-10-09 13h39.30.540582 +0530,
160,0,160,0,330.03471759997774,,329.99428360001184,5,330.03471759997774,330.03471759997774,0.01688160002231598,331.6210337000084,[0.285],[-0.11333333333333333],[1],[0],[0],[1.6101684999885038],['Target'],03,001,2024-10-09_13h39.14.996,3.0 search,2024.1.5,None,2024-10-09 13h39.30.540582 +0530,
161,0,161,0,331.6655698000104,,331.62425340001937,5,331.6655698000104,331.6655698000104,0.016831399989314377,333.31779140001163,[-0.205],[0.23],[1],[0],[0],[1.67704469995806],['Target'],03,001,2024-10-09_13h39.14.996,3.0 search,2024.1.5,None,2024-10-09 13h39.30.540582 +0530,
162,0,162,0,333.36287000001175,,333.3208523999783,5,333.36287000001175,333.36287000001175,0.016700400039553642,335.2806617000024,[-0.43333333333333335],[-0.4116666666666667],[1],[0],[0],[1.9433670999715105],['Target'],03,001,2024-10-09_13h39.14.996,3.0 search,2024.1.5,None,2024-10-09 13h39.30.540582 +0530,
163,0,163,0,335.32639970001765,,335.28392800001893,5,335.32639970001765,335.32639970001765,0.017477600020356476,337.54459890001453,[0.3383333333333333],[0.19],[1],[0],[0],[2.243470499990508],['Target'],03,001,2024-10-09_13h39.14.996,3.0 search,2024.1.5,None,2024-10-09 13h39.30.540582 +0530,
164,0,164,0,337.58927799999947,,337.54773669998394,5,337.58927799999947,337.58927799999947,0.016460100014228374,340.2911560999928,[-0.3566666666666667],[0.49333333333333335],[1],[0],[0],[2.7271614000201225],['Target'],03,001,2024-10-09_13h39.14.996,3.0 search,2024.1.5,None,2024-10-09 13h39.30.540582 +0530,
165,0,165,0,340.3350240000291,,340.29420589999063,5,340.3350240000291,340.3350240000291,0.016270000021904707,342.45295800000895,[0.42333333333333334],[0.43666666666666665],[1],[0],[0],[2.1426832999568433],['Target'],03,001,2024-10-09_13h39.14.996,3.0 search,2024.1.5,None,2024-10-09 13h39.30.540582 +0530,
166,0,166,0,342.4981867999886,,342.4561694000149,5,342.4981867999886,342.4981867999886,0.016932300000917166,344.31713650003076,[-0.305],[0.08333333333333333],[1],[0],[0],[1.8444331999635324],['Target'],03,001,2024-10-09_13h39.14.996,3.0 search,2024.1.5,None,2024-10-09 13h39.30.540582 +0530,
167,0,167,0,344.37829810002586,,344.32019719999516,10,344.37829810002586,344.37829810002586,0.032224000024143606,345.8819908000296,[0.17],[0.07833333333333334],[1],[0],[0],[1.529802099976223],['Target'],03,001,2024-10-09_13h39.14.996,3.0 search,2024.1.5,None,2024-10-09 13h39.30.540582 +0530,
168,0,168,0,345.9259543999797,,345.88509719999274,5,345.9259543999797,345.9259543999797,0.01610050001181662,347.8276516000042,[0.36333333333333334],[-0.16666666666666666],[1],[0],[0],[1.926624100015033],['Target'],03,001,2024-10-09_13h39.14.996,3.0 search,2024.1.5,None,2024-10-09 13h39.30.540582 +0530,
169,0,169,0,347.8895240999991,,347.830788900028,10,347.8895240999991,347.8895240999991,0.03186930000083521,349.94025610003155,[0.36333333333333334],[-0.355],[1],[0],[0],[2.077799300022889],['Target'],03,001,2024-10-09_13h39.14.996,3.0 search,2024.1.5,None,2024-10-09 13h39.30.540582 +0530,
170,0,170,0,350.0027027000324,,349.94387770001777,10,350.0027027000324,350.0027027000324,0.03200579999247566,352.7208768000128,[-0.065],[0.20333333333333334],[1],[0],[0],[2.745268800004851],['Target'],03,001,2024-10-09_13h39.14.996,3.0 search,2024.1.5,None,2024-10-09 13h39.30.540582 +0530,
171,0,171,0,352.76485540001886,,352.72401000000536,5,352.76485540001886,352.76485540001886,0.015990399988368154,354.7509969000239,[-0.205],[-0.485],[1],[0],[0],[2.0110298999934457],['Target'],03,001,2024-10-09_13h39.14.996,3.0 search,2024.1.5,None,2024-10-09 13h39.30.540582 +0530,
172,0,172,0,354.79531610000413,,354.75404089997755,5,354.79531610000413,354.79531610000413,0.016139399958774447,356.4646745999926,[0.10166666666666667],[-0.09166666666666666],[1],[0],[0],[1.6944910999736749],['Target'],03,001,2024-10-09_13h39.14.996,3.0 search,2024.1.5,None,2024-10-09 13h39.30.540582 +0530,
173,0,173,0,356.5256959000253,,356.4680735000293,10,356.5256959000253,356.5256959000253,0.03139619994908571,358.6759705999866,[0.3933333333333333],[0.25333333333333335],[1],[0],[0],[2.176709499966819],['Target'],03,001,2024-10-09_13h39.14.996,3.0 search,2024.1.5,None,2024-10-09 13h39.30.540582 +0530,
174,0,174,0,358.7387638000073,,358.67904419999104,10,358.7387638000073,358.7387638000073,0.03100540000014007,360.2403598999954,[-0.3383333333333333],[0.008333333333333333],[1],[0],[0],[1.5305266000214033],['Target'],03,001,2024-10-09_13h39.14.996,3.0 search,2024.1.5,None,2024-10-09 13h39.30.540582 +0530,
175,0,175,0,360.3029195999843,,360.2434334999998,10,360.3029195999843,360.3029195999843,0.03254079999169335,362.57136150001315,[0.23166666666666666],[-0.145],[1],[0],[0],[2.295612800051458],['Target'],03,001,2024-10-09_13h39.14.996,3.0 search,2024.1.5,None,2024-10-09 13h39.30.540582 +0530,
176,0,176,0,362.6160222000326,,362.5743988000322,5,362.6160222000326,362.6160222000326,0.01634479995118454,364.184850700025,[0.2916666666666667],[-0.08333333333333333],[1],[0],[0],[1.5942349000251852],['Target'],03,001,2024-10-09_13h39.14.996,3.0 search,2024.1.5,None,2024-10-09 13h39.30.540582 +0530,
177,0,177,0,364.2467246000306,,364.1878402000293,10,364.2467246000306,364.2467246000306,0.031698100036010146,365.8979500000132,[-0.29333333333333333],[-0.19166666666666668],[1],[0],[0],[1.6786053000250831],['Target'],03,001,2024-10-09_13h39.14.996,3.0 search,2024.1.5,None,2024-10-09 13h39.30.540582 +0530,
178,0,178,0,365.9439676000038,,365.90138940000907,5,365.9439676000038,365.9439676000038,0.017418500036001205,368.39537610003026,[-0.23833333333333334],[0.025],[1],[0],[0],[2.477089899999555],['Target'],03,001,2024-10-09_13h39.14.996,3.0 search,2024.1.5,None,2024-10-09 13h39.30.540582 +0530,
179,0,179,0,368.456566000008,,368.39843430003384,10,368.456566000008,368.456566000008,0.03390949999447912,370.55712170002516,[0.4866666666666667],[0.125],[1],[0],[0],[2.124967399984598],['Target'],03,001,2024-10-09_13h39.14.996,3.0 search,2024.1.5,None,2024-10-09 13h39.30.540582 +0530,
180,0,180,0,370.5865608000313,,370.5600837999955,5,370.5865608000313,370.5865608000313,0.017025900015141815,371.9559742999845,[0.2683333333333333],[0.0033333333333333335],[1],[0],[0],[1.3789415000355802],['Target'],03,001,2024-10-09_13h39.14.996,3.0 search,2024.1.5,None,2024-10-09 13h39.30.540582 +0530,
181,0,181,0,372.01772130001336,,371.95941060001496,10,372.01772130001336,372.01772130001336,0.03317620005691424,374.2678088999819,[-0.11166666666666666],[-0.19666666666666666],[1],[0],[0],[2.275731600006111],['Target'],03,001,2024-10-09_13h39.14.996,3.0 search,2024.1.5,None,2024-10-09 13h39.30.540582 +0530,
182,0,182,0,374.33053600002313,,374.27091319998726,10,374.33053600002313,374.33053600002313,0.032890999980736524,375.8337138000061,[0.17666666666666667],[0.013333333333333334],[1],[0],[0],[1.5300974000128917],['Target'],03,001,2024-10-09_13h39.14.996,3.0 search,2024.1.5,None,2024-10-09 13h39.30.540582 +0530,
183,0,183,0,375.87803140003234,,375.836862199998,5,375.87803140003234,375.87803140003234,0.01702650001971051,377.74750759999733,[0.095],[0.49666666666666665],[1],[0],[0],[1.8938826999510638],['Target'],03,001,2024-10-09_13h39.14.996,3.0 search,2024.1.5,None,2024-10-09 13h39.30.540582 +0530,
184,0,184,0,377.791251800023,,377.7505971000064,5,377.791251800023,377.791251800023,0.01695979997748509,379.47769139998127,[0.44166666666666665],[0.29333333333333333],[1],[0],[0],[1.710319600009825],['Target'],03,001,2024-10-09_13h39.14.996,3.0 search,2024.1.5,None,2024-10-09 13h39.30.540582 +0530,
185,0,185,0,379.5220790000167,,379.48163860000204,5,379.5220790000167,379.5220790000167,0.017819000000599772,382.20685980003327,[-0.19333333333333333],[0.07833333333333334],[1],[0],[0],[2.707589300000109],['Target'],03,001,2024-10-09_13h39.14.996,3.0 search,2024.1.5,None,2024-10-09 13h39.30.540582 +0530,
186,0,186,0,382.2679378000321,,382.21017879998544,10,382.2679378000321,382.2679378000321,0.03396109997993335,384.0192821000237,[-0.095],[-0.3983333333333333],[1],[0],[0],[1.7753779999911785],['Target'],03,001,2024-10-09_13h39.14.996,3.0 search,2024.1.5,None,2024-10-09 13h39.30.540582 +0530,
187,0,187,0,384.06472359999316,,384.0229093999951,5,384.06472359999316,384.06472359999316,0.01735550002194941,386.0499074999825,[0.115],[0.42333333333333334],[1],[0],[0],[2.009852099989075],['Target'],03,001,2024-10-09_13h39.14.996,3.0 search,2024.1.5,None,2024-10-09 13h39.30.540582 +0530,
188,0,188,0,386.1117723999778,,386.0531136000063,10,386.1117723999778,386.1117723999778,0.03208599996287376,387.8136966000311,[-0.43],[0.25166666666666665],[1],[0],[0],[1.72871799999848],['Target'],03,001,2024-10-09_13h39.14.996,3.0 search,2024.1.5,None,2024-10-09 13h39.30.540582 +0530,
189,0,189,0,387.85909099999117,,387.81752739998046,5,387.85909099999117,387.85909099999117,0.01850060001015663,389.5111998000066,[0.3],[-0.29333333333333333],[1],[0],[0],[1.675851900014095],['Target'],03,001,2024-10-09_13h39.14.996,3.0 search,2024.1.5,None,2024-10-09 13h39.30.540582 +0530,
190,0,190,0,389.5727121999953,,389.51447019999614,10,389.5727121999953,389.5727121999953,0.03274479997344315,391.5574840999907,[-0.41833333333333333],[-0.3433333333333333],[1],[0],[0],[2.0104556000442244],['Target'],03,001,2024-10-09_13h39.14.996,3.0 search,2024.1.5,None,2024-10-09 13h39.30.540582 +0530,
191,0,191,0,391.60287070000777,,391.56096899998374,5,391.60287070000777,391.60287070000777,0.017323500011116266,393.588974400016,[-0.23],[-0.35],[1],[0],[0],[2.0109220999875106],['Target'],03,001,2024-10-09_13h39.14.996,3.0 search,2024.1.5,None,2024-10-09 13h39.30.540582 +0530,
192,0,192,0,393.64962280000327,,393.59208650002256,10,393.64962280000327,393.64962280000327,0.03453579999040812,398.4135938999825,[0.38166666666666665],[-0.49],[1],[0],[0],[4.787260000011884],['Target'],03,001,2024-10-09_13h39.14.996,3.0 search,2024.1.5,None,2024-10-09 13h39.30.540582 +0530,
193,0,193,0,398.4750716999988,,398.416899200005,10,398.4750716999988,398.4750716999988,0.03146649996051565,400.3103590999963,[-0.011666666666666667],[0.24333333333333335],[1],[0],[0],[1.8623024999978952],['Target'],03,001,2024-10-09_13h39.14.996,3.0 search,2024.1.5,None,2024-10-09 13h39.30.540582 +0530,
194,0,194,0,400.35543220001273,,400.31399480003165,5,400.35543220001273,400.35543220001273,0.018363700015470386,402.00896499998635,[-0.14166666666666666],[0.47833333333333333],[1],[0],[0],[1.6769176999805495],['Target'],03,001,2024-10-09_13h39.14.996,3.0 search,2024.1.5,None,2024-10-09 13h39.30.540582 +0530,
195,0,195,0,402.0525674999808,,402.01228470000206,5,402.0525674999808,402.0525674999808,0.01755089999642223,403.5548385999864,[0.18],[0.315],[1],[0],[0],[1.5252249999903142],['Target'],03,001,2024-10-09_13h39.14.996,3.0 search,2024.1.5,None,2024-10-09 13h39.30.540582 +0530,
196,0,196,0,403.6003268000204,,403.5582935999846,5,403.6003268000204,403.6003268000204,0.01708749996032566,405.7692150999792,[-0.13666666666666666],[-0.4216666666666667],[1],[0],[0],[2.1940806999919005],['Target'],03,001,2024-10-09_13h39.14.996,3.0 search,2024.1.5,None,2024-10-09 13h39.30.540582 +0530,
197,0,197,0,405.8136128000333,,405.7724535000161,5,405.8136128000333,405.8136128000333,0.017357600037939847,407.631758500007,[0.4683333333333333],[-0.44166666666666665],[1],[0],[0],[1.8422767000156455],['Target'],03,001,2024-10-09_13h39.14.996,3.0 search,2024.1.5,None,2024-10-09 13h39.30.540582 +0530,
198,0,198,0,407.676902599982,,407.63494950003223,5,407.676902599982,407.676902599982,0.017559300002176315,409.4968216000125,[-0.011666666666666667],[0.405],[1],[0],[0],[1.8445812000427395],['Target'],03,001,2024-10-09_13h39.14.996,3.0 search,2024.1.5,None,2024-10-09 13h39.30.540582 +0530,
199,0,199,0,409.54080670000985,,409.50009590003174,5,409.54080670000985,409.54080670000985,0.017603299987968057,411.692846800026,[0.47833333333333333],[-0.2866666666666667],[1],[0],[0],[2.175537999952212],['Target'],03,001,2024-10-09_13h39.14.996,3.0 search,2024.1.5,None,2024-10-09 13h39.30.540582 +0530,
