trials.thisRepN,trials.thisTrialN,trials.thisN,trials.thisIndex,thisRow.t,notes,trial.started,num_distr,fixation.started,Target.started,mouse.started,trial.stopped,mouse.x,mouse.y,mouse.leftButton,mouse.midButton,mouse.rightButton,mouse.time,mouse.clicked_name,participant,session,date,expName,psychopyVersion,frameRate,expStart,
0,0,0,0,0.07080689998110756,,0.02921750000678003,5,0.07080689998110756,0.07080689998110756,0.05344550003064796,2.2308087999699637,[-0.47],[-0.4683333333333333],[1],[0],[0],[2.176460799993947],['Target'],02,001,2024-10-09_13h17.20.767,3.0 search,2024.1.5,None,2024-10-09 13h17.32.981379 +0530,
1,0,1,0,2.2680755999754183,,2.2362040000152774,5,2.2680755999754183,2.2680755999754183,0.017306199995800853,4.519969800021499,[0.135],[0.0016666666666666668],[1],[0],[0],[2.2666526999673806],['Target'],02,001,2024-10-09_13h17.20.767,3.0 search,2024.1.5,None,2024-10-09 13h17.32.981379 +0530,
2,0,2,0,4.580912699981127,,4.523141700017732,10,4.580912699981127,4.580912699981127,0.03608709998661652,6.199353699979838,[-0.27666666666666667],[0.18333333333333332],[1],[0],[0],[1.6403567000525072],['Target'],02,001,2024-10-09_13h17.20.767,3.0 search,2024.1.5,None,2024-10-09 13h17.32.981379 +0530,
3,0,3,0,6.24567879998358,,6.203519899980165,5,6.24567879998358,6.24567879998358,0.017935899959411472,7.881846799980849,[0.09666666666666666],[0.5],[1],[0],[0],[1.6607801000354812],['Target'],02,001,2024-10-09_13h17.20.767,3.0 search,2024.1.5,None,2024-10-09 13h17.32.981379 +0530,
4,0,4,0,7.925525899976492,,7.884963800024707,5,7.925525899976492,7.925525899976492,0.017589199997019023,9.661796599975787,[0.04666666666666667],[-0.18],[1],[0],[0],[1.759395900007803],['Target'],02,001,2024-10-09_13h17.20.767,3.0 search,2024.1.5,None,2024-10-09 13h17.32.981379 +0530,
5,0,5,0,9.722648700000718,,9.664958200010005,10,9.722648700000718,9.722648700000718,0.03426370001398027,11.257160499983002,[-0.31333333333333335],[-0.058333333333333334],[1],[0],[0],[1.5581952999928035],['Target'],02,001,2024-10-09_13h17.20.767,3.0 search,2024.1.5,None,2024-10-09 13h17.32.981379 +0530,
6,0,6,0,11.320200600021053,,11.260268400015775,10,11.320200600021053,11.320200600021053,0.032820999971590936,12.875099700002465,[0.4666666666666667],[-0.065],[1],[0],[0],[1.5820729999686591],['Target'],02,001,2024-10-09_13h17.20.767,3.0 search,2024.1.5,None,2024-10-09 13h17.32.981379 +0530,
7,0,7,0,12.967336200003047,,12.883168599975761,10,12.967336200003047,12.967336200003047,0.060602999990805984,15.300763099978212,[0.375],[-0.23666666666666666],[1],[0],[0],[2.3584598999586888],['Target'],02,001,2024-10-09_13h17.20.767,3.0 search,2024.1.5,None,2024-10-09 13h17.32.981379 +0530,
8,0,8,0,15.363582500023767,,15.304296299989801,10,15.363582500023767,15.363582500023767,0.032864400011021644,17.197806800017133,[-0.22333333333333333],[0.3016666666666667],[1],[0],[0],[1.8609929000376724],['Target'],02,001,2024-10-09_13h17.20.767,3.0 search,2024.1.5,None,2024-10-09 13h17.32.981379 +0530,
9,0,9,0,17.260596900014207,,17.201323900022544,10,17.260596900014207,17.260596900014207,0.03352269995957613,20.261060999997426,[0.37166666666666665],[0.2966666666666667],[1],[0],[0],[3.026475099963136],['Target'],02,001,2024-10-09_13h17.20.767,3.0 search,2024.1.5,None,2024-10-09 13h17.32.981379 +0530,
10,0,10,0,20.32239769998705,,20.264452899980824,10,20.32239769998705,20.32239769998705,0.033526299986988306,22.476289800019003,[0.47833333333333333],[0.12166666666666667],[1],[0],[0],[2.17842249997193],['Target'],02,001,2024-10-09_13h17.20.767,3.0 search,2024.1.5,None,2024-10-09 13h17.32.981379 +0530,
11,0,11,0,22.518624100019224,,22.483624599990435,5,22.518624100019224,22.518624100019224,0.02621989999897778,24.205211699998472,[0.405],[0.06],[1],[0],[0],[1.6967004999751225],['Target'],02,001,2024-10-09_13h17.20.767,3.0 search,2024.1.5,None,2024-10-09 13h17.32.981379 +0530,
12,0,12,0,24.249246300023515,,24.208352499990724,5,24.249246300023515,24.249246300023515,0.01840020000236109,25.836059599998407,[0.49],[-0.125],[1],[0],[0],[1.6094779000268318],['Target'],02,001,2024-10-09_13h17.20.767,3.0 search,2024.1.5,None,2024-10-09 13h17.32.981379 +0530,
13,0,13,0,25.880140000022948,,25.839440700015984,5,25.880140000022948,25.880140000022948,0.01750840002205223,28.031690199975856,[0.3466666666666667],[-0.25166666666666665],[1],[0],[0],[2.175199099991005],['Target'],02,001,2024-10-09_13h17.20.767,3.0 search,2024.1.5,None,2024-10-09 13h17.32.981379 +0530,
14,0,14,0,28.093310499971267,,28.034815999970306,10,28.093310499971267,28.093310499971267,0.03551099996548146,29.977753999992274,[-0.2683333333333333],[0.48],[1],[0],[0],[1.9076881000073627],['Target'],02,001,2024-10-09_13h17.20.767,3.0 search,2024.1.5,None,2024-10-09 13h17.32.981379 +0530,
15,0,15,0,30.02324619999854,,29.98132560000522,5,30.02324619999854,30.02324619999854,0.018008100043516606,32.108342099993024,[-0.41],[-0.04],[1],[0],[0],[2.1092760000028647],['Target'],02,001,2024-10-09_13h17.20.767,3.0 search,2024.1.5,None,2024-10-09 13h17.32.981379 +0530,
16,0,16,0,32.17007609998109,,32.111627499980386,10,32.17007609998109,32.17007609998109,0.03560430003562942,33.67181069997605,[-0.065],[0.23333333333333334],[1],[0],[0],[1.52488819998689],['Target'],02,001,2024-10-09_13h17.20.767,3.0 search,2024.1.5,None,2024-10-09 13h17.32.981379 +0530,
17,0,17,0,33.7340419999673,,33.67544069996802,10,33.7340419999673,33.7340419999673,0.03329900000244379,35.95545020001009,[0.11166666666666666],[-0.15],[1],[0],[0],[2.247196599957533],['Target'],02,001,2024-10-09_13h17.20.767,3.0 search,2024.1.5,None,2024-10-09 13h17.32.981379 +0530,
18,0,18,0,36.014185399981216,,35.96464510000078,5,36.014185399981216,36.014185399981216,0.0348686000215821,37.68601010000566,[0.07166666666666667],[0.38333333333333336],[1],[0],[0],[1.6880165000329725],['Target'],02,001,2024-10-09_13h17.20.767,3.0 search,2024.1.5,None,2024-10-09 13h17.32.981379 +0530,
19,0,19,0,37.79433349997271,,37.6949300999986,10,37.79433349997271,37.79433349997271,0.06949770002393052,39.45166869997047,[0.3883333333333333],[0.49],[1],[0],[0],[1.6888339000288397],['Target'],02,001,2024-10-09_13h17.20.767,3.0 search,2024.1.5,None,2024-10-09 13h17.32.981379 +0530,
20,0,20,0,39.526467800023966,,39.46005639998475,5,39.526467800023966,39.526467800023966,0.03338520001852885,41.446983199974056,[0.09833333333333333],[0.26],[1],[0],[0],[1.9547686000005342],['Target'],02,001,2024-10-09_13h17.20.767,3.0 search,2024.1.5,None,2024-10-09 13h17.32.981379 +0530,
21,0,21,0,41.50480890000472,,41.45038370002294,5,41.50480890000472,41.50480890000472,0.026152200007345527,44.023619599989615,[-0.33166666666666667],[-0.2916666666666667],[1],[0],[0],[2.5472742000129074],['Target'],02,001,2024-10-09_13h17.20.767,3.0 search,2024.1.5,None,2024-10-09 13h17.32.981379 +0530,
22,0,22,0,44.06756029999815,,44.02669079997577,5,44.06756029999815,44.06756029999815,0.01810099999420345,46.601879100024235,[0.49],[-0.405],[1],[0],[0],[2.5573007999919355],['Target'],02,001,2024-10-09_13h17.20.767,3.0 search,2024.1.5,None,2024-10-09 13h17.32.981379 +0530,
23,0,23,0,46.64666430000216,,46.6049913999741,5,46.64666430000216,46.64666430000216,0.01759390003280714,48.565889100020286,[0.085],[0.43833333333333335],[1],[0],[0],[1.9435046999715269],['Target'],02,001,2024-10-09_13h17.20.767,3.0 search,2024.1.5,None,2024-10-09 13h17.32.981379 +0530,
24,0,24,0,48.61039579997305,,48.56901919998927,5,48.61039579997305,48.61039579997305,0.017544600006658584,50.547406399971806,[-0.385],[-0.295],[1],[0],[0],[1.9610702999634668],['Target'],02,001,2024-10-09_13h17.20.767,3.0 search,2024.1.5,None,2024-10-09 13h17.32.981379 +0530,
25,0,25,0,50.59068690001732,,50.550382899993565,5,50.59068690001732,50.59068690001732,0.01722660002997145,52.06007900001714,[0.075],[-0.065],[1],[0],[0],[1.492650899977889],['Target'],02,001,2024-10-09_13h17.20.767,3.0 search,2024.1.5,None,2024-10-09 13h17.32.981379 +0530,
26,0,26,0,52.104918400000315,,52.06319309998071,5,52.104918400000315,52.104918400000315,0.017203999974299222,53.92363299999852,[0.345],[-0.3616666666666667],[1],[0],[0],[1.8435836999560706],['Target'],02,001,2024-10-09_13h17.20.767,3.0 search,2024.1.5,None,2024-10-09 13h17.32.981379 +0530,
27,0,27,0,53.985268599994015,,53.9267771000159,10,53.985268599994015,53.985268599994015,0.03200259996810928,55.88609990000259,[-0.155],[0.43666666666666665],[1],[0],[0],[1.927580300020054],['Target'],02,001,2024-10-09_13h17.20.767,3.0 search,2024.1.5,None,2024-10-09 13h17.32.981379 +0530,
28,0,28,0,55.931902099982835,,55.88916139997309,5,55.931902099982835,55.931902099982835,0.01692269998602569,58.13430009997683,[0.20666666666666667],[-0.425],[1],[0],[0],[2.2284253000398166],['Target'],02,001,2024-10-09_13h17.20.767,3.0 search,2024.1.5,None,2024-10-09 13h17.32.981379 +0530,
29,0,29,0,58.19499139999971,,58.13762090000091,10,58.19499139999971,58.19499139999971,0.033090999990236014,60.04834949999349,[-0.24333333333333335],[0.345],[1],[0],[0],[1.877818099979777],['Target'],02,001,2024-10-09_13h17.20.767,3.0 search,2024.1.5,None,2024-10-09 13h17.32.981379 +0530,
30,0,30,0,60.10856620001141,,60.052399099979084,10,60.10856620001141,60.10856620001141,0.032348699984140694,62.11161650001304,[-0.435],[-0.31666666666666665],[1],[0],[0],[2.0270298999967054],['Target'],02,001,2024-10-09_13h17.20.767,3.0 search,2024.1.5,None,2024-10-09 13h17.32.981379 +0530,
31,0,31,0,62.17193519999273,,62.114750600012485,10,62.17193519999273,62.17193519999273,0.03354500001296401,64.49015379999764,[-0.38666666666666666],[0.12],[1],[0],[0],[2.342099600005895],['Target'],02,001,2024-10-09_13h17.20.767,3.0 search,2024.1.5,None,2024-10-09 13h17.32.981379 +0530,
32,0,32,0,64.55195960000856,,64.49359480000567,10,64.55195960000856,64.55195960000856,0.03279029997065663,66.80263749998994,[0.28],[0.1],[1],[0],[0],[2.2764204000122845],['Target'],02,001,2024-10-09_13h17.20.767,3.0 search,2024.1.5,None,2024-10-09 13h17.32.981379 +0530,
33,0,33,0,66.86442130000796,,66.80597659997875,10,66.86442130000796,66.86442130000796,0.03220239997608587,68.96607470000163,[0.051666666666666666],[-0.4083333333333333],[1],[0],[0],[2.128247599990573],['Target'],02,001,2024-10-09_13h17.20.767,3.0 search,2024.1.5,None,2024-10-09 13h17.32.981379 +0530,
34,0,34,0,69.0276849999791,,68.97000979998847,10,69.0276849999791,69.0276849999791,0.03221640002448112,70.79691909998655,[0.24],[0.255],[1],[0],[0],[1.7949932999908924],['Target'],02,001,2024-10-09_13h17.20.767,3.0 search,2024.1.5,None,2024-10-09 13h17.32.981379 +0530,
35,0,35,0,70.85791000002064,,70.80095180001808,10,70.85791000002064,70.85791000002064,0.03200839995406568,73.22458209999604,[-0.485],[0.125],[1],[0],[0],[2.392091099987738],['Target'],02,001,2024-10-09_13h17.20.767,3.0 search,2024.1.5,None,2024-10-09 13h17.32.981379 +0530,
36,0,36,0,73.27091680001467,,73.22784830001183,5,73.27091680001467,73.27091680001467,0.017897300014737993,75.03947939997306,[0.36666666666666664],[-0.18333333333333332],[1],[0],[0],[1.7939737000269815],['Target'],02,001,2024-10-09_13h17.20.767,3.0 search,2024.1.5,None,2024-10-09 13h17.32.981379 +0530,
37,0,37,0,75.08465689996956,,75.04259339999408,5,75.08465689996956,75.08465689996956,0.01688579999608919,77.46911140001612,[0.365],[0.43833333333333335],[1],[0],[0],[2.409903599997051],['Target'],02,001,2024-10-09_13h17.20.767,3.0 search,2024.1.5,None,2024-10-09 13h17.32.981379 +0530,
38,0,38,0,77.51435090001905,,77.47245629999088,5,77.51435090001905,77.51435090001905,0.016617100045550615,80.41487400000915,[0.16166666666666665],[-0.44333333333333336],[1],[0],[0],[2.926130199979525],['Target'],02,001,2024-10-09_13h17.20.767,3.0 search,2024.1.5,None,2024-10-09 13h17.32.981379 +0530,
39,0,39,0,80.45936979999533,,80.41935909999302,5,80.45936979999533,80.45936979999533,0.017845899972599,82.17870930000208,[0.0016666666666666668],[0.36666666666666664],[1],[0],[0],[1.7419076000223868],['Target'],02,001,2024-10-09_13h17.20.767,3.0 search,2024.1.5,None,2024-10-09 13h17.32.981379 +0530,
40,0,40,0,82.2395714999875,,82.18187069997657,10,82.2395714999875,82.2395714999875,0.0334533000132069,83.89112609997392,[0.075],[0.27],[1],[0],[0],[1.676071200054139],['Target'],02,001,2024-10-09_13h17.20.767,3.0 search,2024.1.5,None,2024-10-09 13h17.32.981379 +0530,
41,0,41,0,83.95346119999886,,83.8942388999858,10,83.95346119999886,83.95346119999886,0.03240419999929145,85.95564920001198,[-0.135],[-0.29333333333333333],[1],[0],[0],[2.0292999999946915],['Target'],02,001,2024-10-09_13h17.20.767,3.0 search,2024.1.5,None,2024-10-09 13h17.32.981379 +0530,
42,0,42,0,86.01855530001922,,85.95878779998748,10,86.01855530001922,86.01855530001922,0.03282349999062717,87.57078670000192,[-0.435],[-0.20333333333333334],[1],[0],[0],[1.5794394999975339],['Target'],02,001,2024-10-09_13h17.20.767,3.0 search,2024.1.5,None,2024-10-09 13h17.32.981379 +0530,
43,0,43,0,87.63499709998723,,87.57459979999112,10,87.63499709998723,87.63499709998723,0.03211659996304661,89.43433660001028,[-0.16],[0.23666666666666666],[1],[0],[0],[1.8278781999833882],['Target'],02,001,2024-10-09_13h17.20.767,3.0 search,2024.1.5,None,2024-10-09 13h17.32.981379 +0530,
44,0,44,0,89.49491040001158,,89.43848750001052,10,89.49491040001158,89.49491040001158,0.03426390001550317,91.71207800001139,[-0.09833333333333333],[0.3616666666666667],[1],[0],[0],[2.2397226999746636],['Target'],02,001,2024-10-09_13h17.20.767,3.0 search,2024.1.5,None,2024-10-09 13h17.32.981379 +0530,
45,0,45,0,91.75784410000779,,91.71515170001658,5,91.75784410000779,91.75784410000779,0.016631399979814887,93.77658980002161,[0.058333333333333334],[-0.31833333333333336],[1],[0],[0],[2.0450087999925017],['Target'],02,001,2024-10-09_13h17.20.767,3.0 search,2024.1.5,None,2024-10-09 13h17.32.981379 +0530,
46,0,46,0,93.83790049998788,,93.77974079997512,10,93.83790049998788,93.83790049998788,0.032677499984856695,96.38742669997737,[-0.041666666666666664],[0.48833333333333334],[1],[0],[0],[2.575260400015395],['Target'],02,001,2024-10-09_13h17.20.767,3.0 search,2024.1.5,None,2024-10-09 13h17.32.981379 +0530,
47,0,47,0,96.41685999999754,,96.39072580001084,5,96.41685999999754,96.41685999999754,0.01642200001515448,98.20602109999163,[0.13166666666666665],[0.07333333333333333],[1],[0],[0],[1.7990380999981426],['Target'],02,001,2024-10-09_13h17.20.767,3.0 search,2024.1.5,None,2024-10-09 13h17.32.981379 +0530,
48,0,48,0,98.28545349999331,,98.21250809996855,10,98.28545349999331,98.28545349999331,0.05315950000658631,100.84659009997267,[0.45],[-0.10833333333333334],[1],[0],[0],[2.582177799951751],['Target'],02,001,2024-10-09_13h17.20.767,3.0 search,2024.1.5,None,2024-10-09 13h17.32.981379 +0530,
49,0,49,0,100.90988749999087,,100.84959009999875,10,100.90988749999087,100.90988749999087,0.0315106000052765,102.66115300002275,[0.4766666666666667],[0.11333333333333333],[1],[0],[0],[1.7802530999761075],['Target'],02,001,2024-10-09_13h17.20.767,3.0 search,2024.1.5,None,2024-10-09 13h17.32.981379 +0530,
50,0,50,0,102.70700160000706,,102.66458139999304,5,102.70700160000706,102.70700160000706,0.01699999999254942,104.02675299998373,[0.16666666666666666],[0.22833333333333333],[1],[0],[0],[1.3453745999722742],['Target'],02,001,2024-10-09_13h17.20.767,3.0 search,2024.1.5,None,2024-10-09 13h17.32.981379 +0530,
51,0,51,0,104.08797390002292,,104.02985240000999,10,104.08797390002292,104.08797390002292,0.03156859998125583,105.80569970002398,[0.085],[-0.06166666666666667],[1],[0],[0],[1.7444967000046745],['Target'],02,001,2024-10-09_13h17.20.767,3.0 search,2024.1.5,None,2024-10-09 13h17.32.981379 +0530,
52,0,52,0,105.83536680001998,,105.80897309997818,5,105.83536680001998,105.83536680001998,0.017103300022426993,108.20412559999386,[-0.37],[-0.395],[1],[0],[0],[2.378344900032971],['Target'],02,001,2024-10-09_13h17.20.767,3.0 search,2024.1.5,None,2024-10-09 13h17.32.981379 +0530,
53,0,53,0,108.24810949998209,,108.20721159997629,5,108.24810949998209,108.24810949998209,0.01603509997949004,109.70141410001088,[-0.30666666666666664],[-0.21333333333333335],[1],[0],[0],[1.4783469999674708],['Target'],02,001,2024-10-09_13h17.20.767,3.0 search,2024.1.5,None,2024-10-09 13h17.32.981379 +0530,
54,0,54,0,109.76222400000552,,109.70495809998829,10,109.76222400000552,109.76222400000552,0.03228809998836368,111.499006500002,[-0.14166666666666666],[-0.1],[1],[0],[0],[1.7619578000158072],['Target'],02,001,2024-10-09_13h17.20.767,3.0 search,2024.1.5,None,2024-10-09 13h17.32.981379 +0530,
55,0,55,0,111.55950149998534,,111.50212060002377,10,111.55950149998534,111.55950149998534,0.03301429998828098,113.64509880001424,[-0.465],[0.008333333333333333],[1],[0],[0],[2.110071800008882],['Target'],02,001,2024-10-09_13h17.20.767,3.0 search,2024.1.5,None,2024-10-09 13h17.32.981379 +0530,
56,0,56,0,113.68940610002028,,113.6490274000098,5,113.68940610002028,113.68940610002028,0.017099799995776266,115.92527230002452,[-0.38333333333333336],[-0.48],[1],[0],[0],[2.259595899959095],['Target'],02,001,2024-10-09_13h17.20.767,3.0 search,2024.1.5,None,2024-10-09 13h17.32.981379 +0530,
57,0,57,0,115.98587400000542,,115.92863769998075,10,115.98587400000542,115.98587400000542,0.03136010002344847,118.46872230002191,[0.25833333333333336],[-0.36],[1],[0],[0],[2.5089157999609597],['Target'],02,001,2024-10-09_13h17.20.767,3.0 search,2024.1.5,None,2024-10-09 13h17.32.981379 +0530,
58,0,58,0,118.53170290001435,,118.47184589999961,10,118.53170290001435,118.53170290001435,0.03358839999418706,121.94897560001118,[-0.27666666666666667],[0.14333333333333334],[1],[0],[0],[3.4438091999618337],['Target'],02,001,2024-10-09_13h17.20.767,3.0 search,2024.1.5,None,2024-10-09 13h17.32.981379 +0530,
59,0,59,0,122.00960190000478,,121.95313280000119,10,122.00960190000478,122.00960190000478,0.033701099979225546,124.19301310001174,[-0.325],[-0.355],[1],[0],[0],[2.206632300047204],['Target'],02,001,2024-10-09_13h17.20.767,3.0 search,2024.1.5,None,2024-10-09 13h17.32.981379 +0530,
60,0,60,0,124.25596839998616,,124.1960791000165,10,124.25596839998616,124.25596839998616,0.031495000002905726,126.77325029997155,[0.4533333333333333],[-0.345],[1],[0],[0],[2.5459538999712095],['Target'],02,001,2024-10-09_13h17.20.767,3.0 search,2024.1.5,None,2024-10-09 13h17.32.981379 +0530,
61,0,61,0,126.83501440001419,,126.77631589997327,10,126.83501440001419,126.83501440001419,0.03304140002001077,130.0000602999935,[-0.4116666666666667],[-0.38333333333333336],[1],[0],[0],[3.190987799956929],['Target'],02,001,2024-10-09_13h17.20.767,3.0 search,2024.1.5,None,2024-10-09 13h17.32.981379 +0530,
62,0,62,0,130.0463673999766,,130.00301109999418,5,130.0463673999766,130.0463673999766,0.01737470005173236,132.082273899985,[0.2833333333333333],[0.04833333333333333],[1],[0],[0],[2.0620799000025727],['Target'],02,001,2024-10-09_13h17.20.767,3.0 search,2024.1.5,None,2024-10-09 13h17.32.981379 +0530,
63,0,63,0,132.14309859997593,,132.08555730001535,10,132.14309859997593,132.14309859997593,0.0316778999986127,135.62808759999461,[0.28],[-0.44],[1],[0],[0],[3.511253000004217],['Target'],02,001,2024-10-09_13h17.20.767,3.0 search,2024.1.5,None,2024-10-09 13h17.32.981379 +0530,
64,0,64,0,135.6710692999768,,135.63159140001517,5,135.6710692999768,135.6710692999768,0.016942599962931126,138.22196120000444,[-0.2633333333333333],[0.26666666666666666],[1],[0],[0],[2.573714400001336],['Target'],02,001,2024-10-09_13h17.20.767,3.0 search,2024.1.5,None,2024-10-09 13h17.32.981379 +0530,
65,0,65,0,138.28349020000314,,138.2251016999944,10,138.28349020000314,138.28349020000314,0.032059799996204674,140.6496733999811,[0.3283333333333333],[0.23],[1],[0],[0],[2.3927200000034645],['Target'],02,001,2024-10-09_13h17.20.767,3.0 search,2024.1.5,None,2024-10-09 13h17.32.981379 +0530,
66,0,66,0,140.71290569996927,,140.65281639999012,10,140.71290569996927,140.71290569996927,0.03189919999567792,143.03218239999842,[-0.10166666666666667],[0.043333333333333335],[1],[0],[0],[2.347662600048352],['Target'],02,001,2024-10-09_13h17.20.767,3.0 search,2024.1.5,None,2024-10-09 13h17.32.981379 +0530,
67,0,67,0,143.07570390001638,,143.0354264000198,5,143.07570390001638,143.07570390001638,0.017209200013894588,145.04451939999126,[-0.41],[-0.48333333333333334],[1],[0],[0],[1.992089900013525],['Target'],02,001,2024-10-09_13h17.20.767,3.0 search,2024.1.5,None,2024-10-09 13h17.32.981379 +0530,
68,0,68,0,145.10578290000558,,145.04768949997379,10,145.10578290000558,145.10578290000558,0.0324782999814488,147.28124649997335,[-0.445],[-0.31833333333333336],[1],[0],[0],[2.200922999996692],['Target'],02,001,2024-10-09_13h17.20.767,3.0 search,2024.1.5,None,2024-10-09 13h17.32.981379 +0530,
69,0,69,0,147.36866749997716,,147.29011589998845,10,147.36866749997716,147.36866749997716,0.05650529998820275,149.98675370001,[-0.26],[0.2866666666666667],[1],[0],[0],[2.641502099984791],['Target'],02,001,2024-10-09_13h17.20.767,3.0 search,2024.1.5,None,2024-10-09 13h17.32.981379 +0530,
70,0,70,0,150.03130779997446,,149.99015710002277,5,150.03130779997446,150.03130779997446,0.016437800019048154,151.70022679999238,[-0.4533333333333333],[0.2966666666666667],[1],[0],[0],[1.6938166999607347],['Target'],02,001,2024-10-09_13h17.20.767,3.0 search,2024.1.5,None,2024-10-09 13h17.32.981379 +0530,
71,0,71,0,151.7450790000148,,151.70318539999425,5,151.7450790000148,151.7450790000148,0.016472099989186972,153.88069139997242,[0.3616666666666667],[-0.058333333333333334],[1],[0],[0],[2.1612295000231825],['Target'],02,001,2024-10-09_13h17.20.767,3.0 search,2024.1.5,None,2024-10-09 13h17.32.981379 +0530,
72,0,72,0,153.94172930001514,,153.88376429997152,10,153.94172930001514,153.94172930001514,0.031508800049778074,156.49276150000514,[0.21666666666666667],[0.485],[1],[0],[0],[2.5777111000497825],['Target'],02,001,2024-10-09_13h17.20.767,3.0 search,2024.1.5,None,2024-10-09 13h17.32.981379 +0530,
73,0,73,0,156.55389540002216,,156.4958867999958,10,156.55389540002216,156.55389540002216,0.031659199972637,159.20582620002097,[0.22],[-0.4066666666666667],[1],[0],[0],[2.6784745000186376],['Target'],02,001,2024-10-09_13h17.20.767,3.0 search,2024.1.5,None,2024-10-09 13h17.32.981379 +0530,
74,0,74,0,159.25103689997923,,159.20883149997098,5,159.25103689997923,159.25103689997923,0.015843599976506084,161.0021355000208,[-0.28],[0.125],[1],[0],[0],[1.7776632999884896],['Target'],02,001,2024-10-09_13h17.20.767,3.0 search,2024.1.5,None,2024-10-09 13h17.32.981379 +0530,
75,0,75,0,161.04686369997216,,161.00524079997558,5,161.04686369997216,161.04686369997216,0.016538299969397485,165.02953270002035,[0.021666666666666667],[0.485],[1],[0],[0],[4.007997100008652],['Target'],02,001,2024-10-09_13h17.20.767,3.0 search,2024.1.5,None,2024-10-09 13h17.32.981379 +0530,
76,0,76,0,165.09047549997922,,165.03264280001167,10,165.09047549997922,165.09047549997922,0.03110920003382489,166.44381129997782,[-0.06],[0.19],[1],[0],[0],[1.380326199985575],['Target'],02,001,2024-10-09_13h17.20.767,3.0 search,2024.1.5,None,2024-10-09 13h17.32.981379 +0530,
77,0,77,0,166.50481189996935,,166.44688750000205,10,166.50481189996935,166.50481189996935,0.0331554000149481,168.1559597000014,[-0.08666666666666667],[-0.24833333333333332],[1],[0],[0],[1.6762018000008538],['Target'],02,001,2024-10-09_13h17.20.767,3.0 search,2024.1.5,None,2024-10-09 13h17.32.981379 +0530,
78,0,78,0,168.21866650000447,,168.15955330000725,10,168.21866650000447,168.21866650000447,0.03213290002895519,169.8362984000123,[-0.41],[0.49833333333333335],[1],[0],[0],[1.6450822000042535],['Target'],02,001,2024-10-09_13h17.20.767,3.0 search,2024.1.5,None,2024-10-09 13h17.32.981379 +0530,
79,0,79,0,169.86609710002085,,169.83948809996946,5,169.86609710002085,169.86609710002085,0.016904800024349242,172.0184482000186,[-0.25666666666666665],[-0.03166666666666667],[1],[0],[0],[2.162248000036925],['Target'],02,001,2024-10-09_13h17.20.767,3.0 search,2024.1.5,None,2024-10-09 13h17.32.981379 +0530,
80,0,80,0,172.07917159999488,,172.0215914999717,10,172.07917159999488,172.07917159999488,0.032289499999023974,174.52917689998867,[-0.47],[-0.32666666666666666],[1],[0],[0],[2.4755088000092655],['Target'],02,001,2024-10-09_13h17.20.767,3.0 search,2024.1.5,None,2024-10-09 13h17.32.981379 +0530,
81,0,81,0,174.59189189999597,,174.53232489997754,10,174.59189189999597,174.59189189999597,0.030858499987516552,176.29308759997366,[-0.13],[0.37333333333333335],[1],[0],[0],[1.7301120000192896],['Target'],02,001,2024-10-09_13h17.20.767,3.0 search,2024.1.5,None,2024-10-09 13h17.32.981379 +0530,
82,0,82,0,176.33896179997828,,176.29611350002233,5,176.33896179997828,176.33896179997828,0.01667680003447458,178.20877309999196,[-0.115],[0.37833333333333335],[1],[0],[0],[1.8962467999663204],['Target'],02,001,2024-10-09_13h17.20.767,3.0 search,2024.1.5,None,2024-10-09 13h17.32.981379 +0530,
83,0,83,0,178.2693917999859,,178.21231279999483,10,178.2693917999859,178.2693917999859,0.03130920004332438,179.98686900001485,[0.48833333333333334],[0.395],[1],[0],[0],[1.743467599968426],['Target'],02,001,2024-10-09_13h17.20.767,3.0 search,2024.1.5,None,2024-10-09 13h17.32.981379 +0530,
84,0,84,0,180.03323489998002,,179.99006560002454,5,180.03323489998002,180.03323489998002,0.0172444999916479,182.03512830002,[0.04],[0.11],[1],[0],[0],[2.0280329000088386],['Target'],02,001,2024-10-09_13h17.20.767,3.0 search,2024.1.5,None,2024-10-09 13h17.32.981379 +0530,
85,0,85,0,182.0963978000218,,182.03818299999693,10,182.0963978000218,182.0963978000218,0.0317094000056386,184.52918319997843,[0.275],[0.051666666666666666],[1],[0],[0],[2.4594960999675095],['Target'],02,001,2024-10-09_13h17.20.767,3.0 search,2024.1.5,None,2024-10-09 13h17.32.981379 +0530,
86,0,86,0,184.64213739999104,,184.53236969996942,5,184.64213739999104,184.64213739999104,0.01695130002917722,187.36132789996918,[0.16166666666666665],[-0.25833333333333336],[1],[0],[0],[2.8121885000145994],['Target'],02,001,2024-10-09_13h17.20.767,3.0 search,2024.1.5,None,2024-10-09 13h17.32.981379 +0530,
87,0,87,0,187.421503999969,,187.36604330001865,10,187.421503999969,187.421503999969,0.03194769995752722,189.4736002999707,[-0.24833333333333332],[0.041666666666666664],[1],[0],[0],[2.076083899999503],['Target'],02,001,2024-10-09_13h17.20.767,3.0 search,2024.1.5,None,2024-10-09 13h17.32.981379 +0530,
88,0,88,0,189.5347031999845,,189.47683900000993,10,189.5347031999845,189.5347031999845,0.03163819998735562,190.86967009998625,[0.0],[-0.08833333333333333],[1],[0],[0],[1.3614726000232622],['Target'],02,001,2024-10-09_13h17.20.767,3.0 search,2024.1.5,None,2024-10-09 13h17.32.981379 +0530,
89,0,89,0,190.9324814999709,,190.87285290000727,10,190.9324814999709,190.9324814999709,0.03289189998758957,192.63330109999515,[0.14666666666666667],[-0.22],[1],[0],[0],[1.727757400018163],['Target'],02,001,2024-10-09_13h17.20.767,3.0 search,2024.1.5,None,2024-10-09 13h17.32.981379 +0530,
90,0,90,0,192.67952050000895,,192.63650600000983,5,192.67952050000895,192.67952050000895,0.01721790002193302,195.7966411000234,[0.21166666666666667],[-0.47333333333333333],[1],[0],[0],[3.1431459999876097],['Target'],02,001,2024-10-09_13h17.20.767,3.0 search,2024.1.5,None,2024-10-09 13h17.32.981379 +0530,
91,0,91,0,195.85782169998856,,195.79979040002218,10,195.85782169998856,195.85782169998856,0.031786799954716116,197.44215969997458,[0.041666666666666664],[-0.4083333333333333],[1],[0],[0],[1.610845800023526],['Target'],02,001,2024-10-09_13h17.20.767,3.0 search,2024.1.5,None,2024-10-09 13h17.32.981379 +0530,
92,0,92,0,197.488406999968,,197.4452490999829,5,197.488406999968,197.488406999968,0.017624299973249435,199.25832730002003,[-0.3333333333333333],[0.43333333333333335],[1],[0],[0],[1.795640500029549],['Target'],02,001,2024-10-09_13h17.20.767,3.0 search,2024.1.5,None,2024-10-09 13h17.32.981379 +0530,
93,0,93,0,199.30228740000166,,199.26141789997928,5,199.30228740000166,199.30228740000166,0.016733600001316518,202.452437800006,[-0.37166666666666665],[-0.475],[1],[0],[0],[3.1745068000163883],['Target'],02,001,2024-10-09_13h17.20.767,3.0 search,2024.1.5,None,2024-10-09 13h17.32.981379 +0530,
94,0,94,0,202.49718319997191,,202.45554009999614,5,202.49718319997191,202.49718319997191,0.017264000023715198,203.83358679997036,[0.16],[-0.023333333333333334],[1],[0],[0],[1.3610615999787115],['Target'],02,001,2024-10-09_13h17.20.767,3.0 search,2024.1.5,None,2024-10-09 13h17.32.981379 +0530,
95,0,95,0,203.87833169999067,,203.83677409996744,5,203.87833169999067,203.87833169999067,0.017309100017882884,206.24693909997586,[0.39166666666666666],[-0.41333333333333333],[1],[0],[0],[2.3932330000097863],['Target'],02,001,2024-10-09_13h17.20.767,3.0 search,2024.1.5,None,2024-10-09 13h17.32.981379 +0530,
96,0,96,0,206.3077322000172,,206.25009559997125,10,206.3077322000172,206.3077322000172,0.03368460002820939,208.07588530000066,[-0.4083333333333333],[-0.36],[1],[0],[0],[1.7924083999823779],['Target'],02,001,2024-10-09_13h17.20.767,3.0 search,2024.1.5,None,2024-10-09 13h17.32.981379 +0530,
97,0,97,0,208.13811449997593,,208.0791586000123,10,208.13811449997593,208.13811449997593,0.03086950001306832,209.539518399979,[-0.27166666666666667],[-0.415],[1],[0],[0],[1.4298065999755636],['Target'],02,001,2024-10-09_13h17.20.767,3.0 search,2024.1.5,None,2024-10-09 13h17.32.981379 +0530,
98,0,98,0,209.60296180000296,,209.54261800000677,10,209.60296180000296,209.60296180000296,0.03087840002262965,211.03716230002465,[-0.135],[-0.025],[1],[0],[0],[1.4638418999966234],['Target'],02,001,2024-10-09_13h17.20.767,3.0 search,2024.1.5,None,2024-10-09 13h17.32.981379 +0530,
99,0,99,0,211.09993049997138,,211.04062430001795,10,211.09993049997138,211.09993049997138,0.03192740003578365,212.74716919998173,[0.3383333333333333],[-0.20166666666666666],[1],[0],[0],[1.674799999978859],['Target'],02,001,2024-10-09_13h17.20.767,3.0 search,2024.1.5,None,2024-10-09 13h17.32.981379 +0530,
100,0,100,0,212.85597909998614,,212.75629049999407,10,212.85597909998614,212.85597909998614,0.06661520001944155,214.80082770000445,[0.44666666666666666],[0.4583333333333333],[1],[0],[0],[1.9791644000215456],['Target'],02,001,2024-10-09_13h17.20.767,3.0 search,2024.1.5,None,2024-10-09 13h17.32.981379 +0530,
101,0,101,0,214.86064580001403,,214.80391269997926,10,214.86064580001403,214.86064580001403,0.030806499999016523,216.71155100001488,[-0.255],[-0.11166666666666666],[1],[0],[0],[1.8770441000233404],['Target'],02,001,2024-10-09_13h17.20.767,3.0 search,2024.1.5,None,2024-10-09 13h17.32.981379 +0530,
102,0,102,0,216.75742430001264,,216.7147200999898,5,216.75742430001264,216.75742430001264,0.01922090002335608,218.70935159997316,[-0.14],[-0.43],[1],[0],[0],[1.9756401000195183],['Target'],02,001,2024-10-09_13h17.20.767,3.0 search,2024.1.5,None,2024-10-09 13h17.32.981379 +0530,
103,0,103,0,218.75454799999716,,218.71251949999714,5,218.75454799999716,218.75454799999716,0.017355200019665062,220.17481679999037,[-0.48833333333333334],[0.2816666666666667],[1],[0],[0],[1.4452045999933034],['Target'],02,001,2024-10-09_13h17.20.767,3.0 search,2024.1.5,None,2024-10-09 13h17.32.981379 +0530,
104,0,104,0,220.23535159998573,,220.17773659998784,10,220.23535159998573,220.23535159998573,0.03125629998976365,222.35480289999396,[-0.45666666666666667],[0.20833333333333334],[1],[0],[0],[2.14581439999165],['Target'],02,001,2024-10-09_13h17.20.767,3.0 search,2024.1.5,None,2024-10-09 13h17.32.981379 +0530,
105,0,105,0,222.39858280000044,,222.35795749997487,5,222.39858280000044,222.39858280000044,0.01663989998633042,224.70095540001057,[0.465],[-0.26],[1],[0],[0],[2.3265525000169873],['Target'],02,001,2024-10-09_13h17.20.767,3.0 search,2024.1.5,None,2024-10-09 13h17.32.981379 +0530,
106,0,106,0,224.74492959998315,,224.70399399998132,5,224.74492959998315,224.74492959998315,0.016740299994125962,226.8139353999868,[-0.09666666666666666],[0.41333333333333333],[1],[0],[0],[2.0933881999808364],['Target'],02,001,2024-10-09_13h17.20.767,3.0 search,2024.1.5,None,2024-10-09 13h17.32.981379 +0530,
107,0,107,0,226.85828789998777,,226.81883220002055,5,226.85828789998777,226.85828789998777,0.01697929995134473,228.69324930000585,[0.06833333333333333],[-0.08833333333333333],[1],[0],[0],[1.8579466000082903],['Target'],02,001,2024-10-09_13h17.20.767,3.0 search,2024.1.5,None,2024-10-09 13h17.32.981379 +0530,
108,0,108,0,228.75531659997068,,228.69642260001274,10,228.75531659997068,228.75531659997068,0.03209140000399202,230.79107520001708,[0.17666666666666667],[0.28833333333333333],[1],[0],[0],[2.0628329000319354],['Target'],02,001,2024-10-09_13h17.20.767,3.0 search,2024.1.5,None,2024-10-09 13h17.32.981379 +0530,
109,0,109,0,230.851793800015,,230.79417409998132,10,230.851793800015,230.851793800015,0.03634920000331476,232.7867507999763,[0.38666666666666666],[0.09166666666666666],[1],[0],[0],[1.956399800023064],['Target'],02,001,2024-10-09_13h17.20.767,3.0 search,2024.1.5,None,2024-10-09 13h17.32.981379 +0530,
110,0,110,0,232.83177940000314,,232.78988100000424,5,232.83177940000314,232.83177940000314,0.016234400041867048,234.91681129997596,[0.06333333333333334],[-0.175],[1],[0],[0],[2.110928000009153],['Target'],02,001,2024-10-09_13h17.20.767,3.0 search,2024.1.5,None,2024-10-09 13h17.32.981379 +0530,
111,0,111,0,234.96167170000263,,234.91986059996998,5,234.96167170000263,234.96167170000263,0.016865700017660856,237.4139077999862,[0.3566666666666667],[-0.465],[1],[0],[0],[2.4775296000298113],['Target'],02,001,2024-10-09_13h17.20.767,3.0 search,2024.1.5,None,2024-10-09 13h17.32.981379 +0530,
112,0,112,0,237.47449150000466,,237.41814550000709,10,237.47449150000466,237.47449150000466,0.03164240001933649,240.42318709997926,[0.33166666666666667],[0.4116666666666667],[1],[0],[0],[2.973755999992136],['Target'],02,001,2024-10-09_13h17.20.767,3.0 search,2024.1.5,None,2024-10-09 13h17.32.981379 +0530,
113,0,113,0,240.45295080001233,,240.42634160001762,5,240.45295080001233,240.45295080001233,0.0172385000041686,242.0066631999798,[-0.051666666666666666],[0.19333333333333333],[1],[0],[0],[1.5632741000154056],['Target'],02,001,2024-10-09_13h17.20.767,3.0 search,2024.1.5,None,2024-10-09 13h17.32.981379 +0530,
114,0,114,0,242.06690390000585,,242.00973679998424,10,242.06690390000585,242.06690390000585,0.03159100003540516,243.86970939999446,[-0.425],[-0.265],[1],[0],[0],[1.8286171999643557],['Target'],02,001,2024-10-09_13h17.20.767,3.0 search,2024.1.5,None,2024-10-09 13h17.32.981379 +0530,
115,0,115,0,243.9313828999875,,243.87292749999324,10,243.9313828999875,243.9313828999875,0.0323921000235714,246.11573879997013,[-0.3883333333333333],[0.4116666666666667],[1],[0],[0],[2.2106932000024244],['Target'],02,001,2024-10-09_13h17.20.767,3.0 search,2024.1.5,None,2024-10-09 13h17.32.981379 +0530,
116,0,116,0,246.1775309999939,,246.11886049999157,10,246.1775309999939,246.1775309999939,0.03367210004944354,248.194248099986,[-0.45],[-0.11333333333333333],[1],[0],[0],[2.04191259999061],['Target'],02,001,2024-10-09_13h17.20.767,3.0 search,2024.1.5,None,2024-10-09 13h17.32.981379 +0530,
117,0,117,0,248.25702810002258,,248.19733619998442,10,248.25702810002258,248.25702810002258,0.030923000012990087,250.9078096000012,[-0.1],[0.36],[1],[0],[0],[2.6797989000333473],['Target'],02,001,2024-10-09_13h17.20.767,3.0 search,2024.1.5,None,2024-10-09 13h17.32.981379 +0530,
118,0,118,0,250.96950309997192,,250.9111101999879,10,250.96950309997192,250.96950309997192,0.03375970001798123,253.55261710000923,[0.365],[0.056666666666666664],[1],[0],[0],[2.6077737999730743],['Target'],02,001,2024-10-09_13h17.20.767,3.0 search,2024.1.5,None,2024-10-09 13h17.32.981379 +0530,
119,0,119,0,253.61522829998285,,253.5557466999744,10,253.61522829998285,253.61522829998285,0.030785400012973696,255.8040041999775,[0.175],[-0.13833333333333334],[1],[0],[0],[2.21713899995666],['Target'],02,001,2024-10-09_13h17.20.767,3.0 search,2024.1.5,None,2024-10-09 13h17.32.981379 +0530,
120,0,120,0,255.87834749999456,,255.81349319999572,10,255.87834749999456,255.87834749999456,0.04972840001573786,257.7789440000197,[-0.32],[0.0016666666666666668],[1],[0],[0],[1.9184972000075504],['Target'],02,001,2024-10-09_13h17.20.767,3.0 search,2024.1.5,None,2024-10-09 13h17.32.981379 +0530,
121,0,121,0,257.84196340001654,,257.7820326000219,10,257.84196340001654,257.84196340001654,0.031729500042274594,260.1086689999793,[0.48833333333333334],[0.018333333333333333],[1],[0],[0],[2.2950697999913245],['Target'],02,001,2024-10-09_13h17.20.767,3.0 search,2024.1.5,None,2024-10-09 13h17.32.981379 +0530,
122,0,122,0,260.17146939999657,,260.1117819999927,10,260.17146939999657,260.17146939999657,0.031754499999806285,262.5734908999875,[0.4816666666666667],[-0.33666666666666667],[1],[0],[0],[2.4301972000394017],['Target'],02,001,2024-10-09_13h17.20.767,3.0 search,2024.1.5,None,2024-10-09 13h17.32.981379 +0530,
123,0,123,0,262.61736199998995,,262.576510999992,5,262.61736199998995,262.61736199998995,0.016039399954024702,264.7025923000183,[0.045],[0.10166666666666667],[1],[0],[0],[2.11021679994883],['Target'],02,001,2024-10-09_13h17.20.767,3.0 search,2024.1.5,None,2024-10-09 13h17.32.981379 +0530,
124,0,124,0,264.76409529999364,,264.7054940999951,10,264.76409529999364,264.76409529999364,0.032477700035087764,266.3816619999707,[0.058333333333333334],[-0.3616666666666667],[1],[0],[0],[1.643890100007411],['Target'],02,001,2024-10-09_13h17.20.767,3.0 search,2024.1.5,None,2024-10-09 13h17.32.981379 +0530,
125,0,125,0,266.41159749997314,,266.38478720001876,5,266.41159749997314,266.41159749997314,0.016082199988886714,268.11462030000985,[-0.18666666666666668],[0.21833333333333332],[1],[0],[0],[1.7140023999963887],['Target'],02,001,2024-10-09_13h17.20.767,3.0 search,2024.1.5,None,2024-10-09 13h17.32.981379 +0530,
126,0,126,0,268.1755048999912,,268.11882149998564,10,268.1755048999912,268.1755048999912,0.03258629998890683,269.8958723000251,[-0.04],[0.395],[1],[0],[0],[1.7446581999538466],['Target'],02,001,2024-10-09_13h17.20.767,3.0 search,2024.1.5,None,2024-10-09 13h17.32.981379 +0530,
127,0,127,0,269.95581359998323,,269.8992519999738,10,269.95581359998323,269.95581359998323,0.031676000042352825,271.9952079000068,[-0.14166666666666666],[0.14833333333333334],[1],[0],[0],[2.0640433999942616],['Target'],02,001,2024-10-09_13h17.20.767,3.0 search,2024.1.5,None,2024-10-09 13h17.32.981379 +0530,
128,0,128,0,272.1025905999704,,272.0046057999716,10,272.1025905999704,272.1025905999704,0.06452369998442009,274.42313100001775,[0.05333333333333334],[0.18666666666666668],[1],[0],[0],[2.355311499966774],['Target'],02,001,2024-10-09_13h17.20.767,3.0 search,2024.1.5,None,2024-10-09 13h17.32.981379 +0530,
129,0,129,0,274.5322213000036,,274.43127000000095,10,274.5322213000036,274.5322213000036,0.05873769999016076,275.8029315000167,[-0.09333333333333334],[0.21166666666666667],[1],[0],[0],[1.314489100011997],['Target'],02,001,2024-10-09_13h17.20.767,3.0 search,2024.1.5,None,2024-10-09 13h17.32.981379 +0530,
130,0,130,0,275.86315460002515,,275.8107775999815,5,275.86315460002515,275.86315460002515,0.03287349996389821,277.7178858999978,[0.3333333333333333],[-0.08166666666666667],[1],[0],[0],[1.8754694000235759],['Target'],02,001,2024-10-09_13h17.20.767,3.0 search,2024.1.5,None,2024-10-09 13h17.32.981379 +0530,
131,0,131,0,277.82655599998543,,277.72461650002515,10,277.82655599998543,277.82655599998543,0.061041800014209,280.42804520000936,[0.3933333333333333],[-0.32],[1],[0],[0],[2.6434581000357866],['Target'],02,001,2024-10-09_13h17.20.767,3.0 search,2024.1.5,None,2024-10-09 13h17.32.981379 +0530,
132,0,132,0,280.47215260000667,,280.4330777999712,5,280.47215260000667,280.47215260000667,0.02598599996417761,282.17613819998223,[-0.15833333333333333],[-0.06833333333333333],[1],[0],[0],[1.7178034000098705],['Target'],02,001,2024-10-09_13h17.20.767,3.0 search,2024.1.5,None,2024-10-09 13h17.32.981379 +0530,
133,0,133,0,282.2358951999922,,282.183838500001,5,282.2358951999922,282.2358951999922,0.027010800025891513,284.23853849997977,[0.14166666666666666],[-0.021666666666666667],[1],[0],[0],[2.0287688999669626],['Target'],02,001,2024-10-09_13h17.20.767,3.0 search,2024.1.5,None,2024-10-09 13h17.32.981379 +0530,
134,0,134,0,284.3328899000189,,284.2462497000233,10,284.3328899000189,284.3328899000189,0.05585190001875162,286.16832799999975,[-0.42833333333333334],[0.008333333333333333],[1],[0],[0],[1.8675365999806672],['Target'],02,001,2024-10-09_13h17.20.767,3.0 search,2024.1.5,None,2024-10-09 13h17.32.981379 +0530,
135,0,135,0,286.2129912999808,,286.17509470001096,5,286.2129912999808,286.2129912999808,0.023804099997505546,288.01693250000244,[0.17],[-0.021666666666666667],[1],[0],[0],[1.8185469000018202],['Target'],02,001,2024-10-09_13h17.20.767,3.0 search,2024.1.5,None,2024-10-09 13h17.32.981379 +0530,
136,0,136,0,288.0767922999803,,288.0239969000104,5,288.0767922999803,288.0767922999803,0.023500500014051795,289.7307441000012,[-0.06166666666666667],[0.19333333333333333],[1],[0],[0],[1.6842940999777056],['Target'],02,001,2024-10-09_13h17.20.767,3.0 search,2024.1.5,None,2024-10-09 13h17.32.981379 +0530,
137,0,137,0,289.7906290999963,,289.7347139000194,5,289.7906290999963,289.7906290999963,0.028597500000614673,291.59595519996947,[-0.01],[-0.08333333333333333],[1],[0],[0],[1.8327095999848098],['Target'],02,001,2024-10-09_13h17.20.767,3.0 search,2024.1.5,None,2024-10-09 13h17.32.981379 +0530,
138,0,138,0,291.63753880001605,,291.5989306999836,5,291.63753880001605,291.63753880001605,0.022039700008463115,293.905543699977,[-0.056666666666666664],[-0.405],[1],[0],[0],[2.284894799988251],['Target'],02,001,2024-10-09_13h17.20.767,3.0 search,2024.1.5,None,2024-10-09 13h17.32.981379 +0530,
139,0,139,0,293.95034739997936,,293.9098153000232,5,293.95034739997936,293.95034739997936,0.0188133999472484,295.37066439999035,[0.08166666666666667],[-0.35833333333333334],[1],[0],[0],[1.442502699967008],['Target'],02,001,2024-10-09_13h17.20.767,3.0 search,2024.1.5,None,2024-10-09 13h17.32.981379 +0530,
140,0,140,0,295.44820619997336,,295.3779349999968,10,295.44820619997336,295.44820619997336,0.0360849000280723,297.332559100003,[0.18833333333333332],[0.22666666666666666],[1],[0],[0],[1.9197596000158228],['Target'],02,001,2024-10-09_13h17.20.767,3.0 search,2024.1.5,None,2024-10-09 13h17.32.981379 +0530,
141,0,141,0,297.3947098000208,,297.33646899997257,10,297.3947098000208,297.3947098000208,0.03524310002103448,299.11278249998577,[-0.08166666666666667],[0.39666666666666667],[1],[0],[0],[1.7416970999911427],['Target'],02,001,2024-10-09_13h17.20.767,3.0 search,2024.1.5,None,2024-10-09 13h17.32.981379 +0530,
142,0,142,0,299.17563419998623,,299.1158986000228,10,299.17563419998623,299.17563419998623,0.03312730003381148,301.22834600001806,[0.23666666666666666],[-0.255],[1],[0],[0],[2.079491999989841],['Target'],02,001,2024-10-09_13h17.20.767,3.0 search,2024.1.5,None,2024-10-09 13h17.32.981379 +0530,
143,0,143,0,301.2891998999985,,301.2329385000048,10,301.2891998999985,301.2891998999985,0.03278510004747659,302.7744949000189,[-0.22333333333333333],[0.485],[1],[0],[0],[1.5089355999953113],['Target'],02,001,2024-10-09_13h17.20.767,3.0 search,2024.1.5,None,2024-10-09 13h17.32.981379 +0530,
144,0,144,0,302.820441799995,,302.77764759998536,5,302.820441799995,302.820441799995,0.017871799995191395,304.8392374999821,[0.02666666666666667],[-0.02],[1],[0],[0],[2.0439070999855176],['Target'],02,001,2024-10-09_13h17.20.767,3.0 search,2024.1.5,None,2024-10-09 13h17.32.981379 +0530,
145,0,145,0,304.89985699998215,,304.8423853999702,10,304.89985699998215,304.89985699998215,0.031616899999789894,306.5351672999677,[0.245],[-0.08666666666666667],[1],[0],[0],[1.6614483000012115],['Target'],02,001,2024-10-09_13h17.20.767,3.0 search,2024.1.5,None,2024-10-09 13h17.32.981379 +0530,
146,0,146,0,306.5802129000076,,306.53824069997063,5,306.5802129000076,306.5802129000076,0.01654510002117604,307.9338558000163,[0.12333333333333334],[0.015],[1],[0],[0],[1.3792951999930665],['Target'],02,001,2024-10-09_13h17.20.767,3.0 search,2024.1.5,None,2024-10-09 13h17.32.981379 +0530,
147,0,147,0,307.99500489997445,,307.9370233999798,10,307.99500489997445,307.99500489997445,0.03221879998454824,310.14675359998364,[0.115],[0.38666666666666666],[1],[0],[0],[2.17764809995424],['Target'],02,001,2024-10-09_13h17.20.767,3.0 search,2024.1.5,None,2024-10-09 13h17.32.981379 +0530,
148,0,148,0,310.2078294000239,,310.1507032000227,10,310.2078294000239,310.2078294000239,0.03287399996770546,311.66274860000703,[0.195],[0.22333333333333333],[1],[0],[0],[1.47946130001219],['Target'],02,001,2024-10-09_13h17.20.767,3.0 search,2024.1.5,None,2024-10-09 13h17.32.981379 +0530,
149,0,149,0,311.7053505000076,,311.6667083000066,5,311.7053505000076,311.7053505000076,0.017928499961271882,313.4078127000248,[0.255],[-0.05],[1],[0],[0],[1.7235827000113204],['Target'],02,001,2024-10-09_13h17.20.767,3.0 search,2024.1.5,None,2024-10-09 13h17.32.981379 +0530,
150,0,150,0,313.4694298999966,,313.41083660000004,10,313.4694298999966,313.4694298999966,0.031131000025197864,314.9227282999782,[-0.18333333333333332],[0.018333333333333333],[1],[0],[0],[1.4809634000412188],['Target'],02,001,2024-10-09_13h17.20.767,3.0 search,2024.1.5,None,2024-10-09 13h17.32.981379 +0530,
151,0,151,0,314.98355309996987,,314.92581909999717,10,314.98355309996987,314.98355309996987,0.03179969999473542,317.034130199987,[0.10166666666666667],[0.36],[1],[0],[0],[2.0767318999860436],['Target'],02,001,2024-10-09_13h17.20.767,3.0 search,2024.1.5,None,2024-10-09 13h17.32.981379 +0530,
152,0,152,0,317.0970101999701,,317.03749419999076,10,317.0970101999701,317.0970101999701,0.03159950004192069,319.23042209999403,[0.25],[-0.01],[1],[0],[0],[2.1617624000064097],['Target'],02,001,2024-10-09_13h17.20.767,3.0 search,2024.1.5,None,2024-10-09 13h17.32.981379 +0530,
153,0,153,0,319.27678429998923,,319.2335548999836,5,319.27678429998923,319.27678429998923,0.018074500025250018,321.2636966999853,[0.01],[-0.35833333333333334],[1],[0],[0],[2.0122728999704123],['Target'],02,001,2024-10-09_13h17.20.767,3.0 search,2024.1.5,None,2024-10-09 13h17.32.981379 +0530,
154,0,154,0,321.3068865999812,,321.2669843999902,5,321.3068865999812,321.3068865999812,0.01835859997663647,322.82685070001753,[-0.12],[0.22833333333333333],[1],[0],[0],[1.5417264999705367],['Target'],02,001,2024-10-09_13h17.20.767,3.0 search,2024.1.5,None,2024-10-09 13h17.32.981379 +0530,
155,0,155,0,322.8710393999936,,322.8299526000046,5,322.8710393999936,322.8710393999936,0.01643399999011308,324.54038600000786,[-0.13333333333333333],[-0.23666666666666666],[1],[0],[0],[1.694152000010945],['Target'],02,001,2024-10-09_13h17.20.767,3.0 search,2024.1.5,None,2024-10-09 13h17.32.981379 +0530,
156,0,156,0,324.6016439999803,,324.54345970001305,10,324.6016439999803,324.6016439999803,0.032083400001283735,326.61925180000253,[0.47833333333333333],[-0.22166666666666668],[1],[0],[0],[2.0437957999529317],['Target'],02,001,2024-10-09_13h17.20.767,3.0 search,2024.1.5,None,2024-10-09 13h17.32.981379 +0530,
157,0,157,0,326.68163090001326,,326.6233062000247,10,326.68163090001326,326.68163090001326,0.030547100002877414,328.18322519998765,[0.45666666666666667],[0.013333333333333334],[1],[0],[0],[1.5295560999657027],['Target'],02,001,2024-10-09_13h17.20.767,3.0 search,2024.1.5,None,2024-10-09 13h17.32.981379 +0530,
158,0,158,0,328.2456729999976,,328.1862328000134,10,328.2456729999976,328.2456729999976,0.03270089998841286,331.84365280001657,[0.3433333333333333],[-0.485],[1],[0],[0],[3.6249409000156447],['Target'],02,001,2024-10-09_13h17.20.767,3.0 search,2024.1.5,None,2024-10-09 13h17.32.981379 +0530,
159,0,159,0,331.9065652000136,,331.8467447999865,10,331.9065652000136,331.9065652000136,0.0323365000076592,333.3084031000035,[0.13166666666666665],[0.12],[1],[0],[0],[1.4295979000162333],['Target'],02,001,2024-10-09_13h17.20.767,3.0 search,2024.1.5,None,2024-10-09 13h17.32.981379 +0530,
160,0,160,0,333.3709056000225,,333.31159870000556,10,333.3709056000225,333.3709056000225,0.033410699979867786,334.82322590000695,[0.17333333333333334],[-0.42],[1],[0],[0],[1.4782773000188172],['Target'],02,001,2024-10-09_13h17.20.767,3.0 search,2024.1.5,None,2024-10-09 13h17.32.981379 +0530,
161,0,161,0,334.86827189999167,,334.8269357000245,5,334.86827189999167,334.86827189999167,0.017456700035836548,336.1878096999717,[0.13],[0.22833333333333333],[1],[0],[0],[1.343673299998045],['Target'],02,001,2024-10-09_13h17.20.767,3.0 search,2024.1.5,None,2024-10-09 13h17.32.981379 +0530,
162,0,162,0,336.2328989999951,,336.1908256000024,5,336.2328989999951,336.2328989999951,0.017141300020739436,337.68533379997825,[0.15333333333333332],[-0.385],[1],[0],[0],[1.4775901999673806],['Target'],02,001,2024-10-09_13h17.20.767,3.0 search,2024.1.5,None,2024-10-09 13h17.32.981379 +0530,
163,0,163,0,337.74722040002234,,337.6884180000052,10,337.74722040002234,337.74722040002234,0.033255500020459294,339.2649354999885,[-0.17],[0.145],[1],[0],[0],[1.5434784999815747],['Target'],02,001,2024-10-09_13h17.20.767,3.0 search,2024.1.5,None,2024-10-09 13h17.32.981379 +0530,
164,0,164,0,339.31130270002177,,339.2688629999757,5,339.31130270002177,339.31130270002177,0.016967700037639588,340.63144239998655,[0.12666666666666668],[-0.09],[1],[0],[0],[1.3458100000279956],['Target'],02,001,2024-10-09_13h17.20.767,3.0 search,2024.1.5,None,2024-10-09 13h17.32.981379 +0530,
165,0,165,0,340.69249529996887,,340.6345823999727,10,340.69249529996887,340.69249529996887,0.03249309997772798,342.71321979997447,[-0.4816666666666667],[-0.22],[1],[0],[0],[2.0463647000142373],['Target'],02,001,2024-10-09_13h17.20.767,3.0 search,2024.1.5,None,2024-10-09 13h17.32.981379 +0530,
166,0,166,0,342.7723291000002,,342.71635200001765,10,342.7723291000002,342.7723291000002,0.031097900005988777,344.8750345999724,[-0.09333333333333334],[0.4816666666666667],[1],[0],[0],[2.127788799989503],['Target'],02,001,2024-10-09_13h17.20.767,3.0 search,2024.1.5,None,2024-10-09 13h17.32.981379 +0530,
167,0,167,0,344.91919809998944,,344.87792759999866,5,344.91919809998944,344.91919809998944,0.017424200021196157,347.62099399999715,[-0.13833333333333334],[-0.035],[1],[0],[0],[2.725807699956931],['Target'],02,001,2024-10-09_13h17.20.767,3.0 search,2024.1.5,None,2024-10-09 13h17.32.981379 +0530,
168,0,168,0,347.681262099999,,347.62404279998736,10,347.681262099999,347.681262099999,0.03367219999199733,350.4981943999883,[-0.40166666666666667],[-0.36833333333333335],[1],[0],[0],[2.840709399955813],['Target'],02,001,2024-10-09_13h17.20.767,3.0 search,2024.1.5,None,2024-10-09 13h17.32.981379 +0530,
169,0,169,0,350.5600878999685,,350.5012929000077,10,350.5600878999685,350.5600878999685,0.03141470003174618,353.4945017999853,[-0.043333333333333335],[-0.035],[1],[0],[0],[2.962008800008334],['Target'],02,001,2024-10-09_13h17.20.767,3.0 search,2024.1.5,None,2024-10-09 13h17.32.981379 +0530,
170,0,170,0,353.5552715000231,,353.49776549998205,10,353.5552715000231,353.5552715000231,0.03156730002956465,355.3406203999766,[-0.14666666666666667],[-0.045],[1],[0],[0],[1.8114352999837138],['Target'],02,001,2024-10-09_13h17.20.767,3.0 search,2024.1.5,None,2024-10-09 13h17.32.981379 +0530,
171,0,171,0,355.3856612999807,,355.34394779999275,5,355.3856612999807,355.3856612999807,0.01693610002985224,357.23814139998285,[0.08166666666666667],[0.12],[1],[0],[0],[1.8774928000057116],['Target'],02,001,2024-10-09_13h17.20.767,3.0 search,2024.1.5,None,2024-10-09 13h17.32.981379 +0530,
172,0,172,0,357.29928570002085,,357.241302600014,10,357.29928570002085,357.29928570002085,0.032412300002761185,358.9831428999896,[0.11833333333333333],[0.06],[1],[0],[0],[1.7096684999996796],['Target'],02,001,2024-10-09_13h17.20.767,3.0 search,2024.1.5,None,2024-10-09 13h17.32.981379 +0530,
173,0,173,0,359.01320709998254,,358.9862514999695,5,359.01320709998254,359.01320709998254,0.016532399982679635,360.56557839998277,[-0.37833333333333335],[0.018333333333333333],[1],[0],[0],[1.5629971000016667],['Target'],02,001,2024-10-09_13h17.20.767,3.0 search,2024.1.5,None,2024-10-09 13h17.32.981379 +0530,
174,0,174,0,360.61068889999297,,360.56863689998863,5,360.61068889999297,360.61068889999297,0.01638680003816262,362.59610819997033,[0.06],[-0.3416666666666667],[1],[0],[0],[2.011312899994664],['Target'],02,001,2024-10-09_13h17.20.767,3.0 search,2024.1.5,None,2024-10-09 13h17.32.981379 +0530,
175,0,175,0,362.6573241999722,,362.5993040999747,10,362.6573241999722,362.6573241999722,0.03374379995511845,364.0941652000183,[0.04666666666666667],[-0.305],[1],[0],[0],[1.4612744000041857],['Target'],02,001,2024-10-09_13h17.20.767,3.0 search,2024.1.5,None,2024-10-09 13h17.32.981379 +0530,
176,0,176,0,364.1380852999864,,364.0972601000103,5,364.1380852999864,364.1380852999864,0.017688299994915724,366.15760769997723,[0.42],[0.04833333333333333],[1],[0],[0],[2.0429004000034183],['Target'],02,001,2024-10-09_13h17.20.767,3.0 search,2024.1.5,None,2024-10-09 13h17.32.981379 +0530,
177,0,177,0,366.2180954000214,,366.16065669996897,10,366.2180954000214,366.2180954000214,0.03215110005112365,367.5363436000189,[0.175],[0.03833333333333333],[1],[0],[0],[1.3437802999978885],['Target'],02,001,2024-10-09_13h17.20.767,3.0 search,2024.1.5,None,2024-10-09 13h17.32.981379 +0530,
178,0,178,0,367.56643100001384,,367.539449599979,5,367.56643100001384,367.56643100001384,0.016123200010042638,369.4181467000162,[0.245],[-0.2633333333333333],[1],[0],[0],[1.8628207000438124],['Target'],02,001,2024-10-09_13h17.20.767,3.0 search,2024.1.5,None,2024-10-09 13h17.32.981379 +0530,
179,0,179,0,369.4796434000018,,369.42131090001203,10,369.4796434000018,369.4796434000018,0.034664300037547946,371.28191610000795,[0.33],[0.325],[1],[0],[0],[1.8261672999942675],['Target'],02,001,2024-10-09_13h17.20.767,3.0 search,2024.1.5,None,2024-10-09 13h17.32.981379 +0530,
180,0,180,0,371.3267932999879,,371.28533210000023,5,371.3267932999879,371.3267932999879,0.01662680000299588,372.9131499999785,[0.49333333333333335],[0.43333333333333335],[1],[0],[0],[1.6114105000160635],['Target'],02,001,2024-10-09_13h17.20.767,3.0 search,2024.1.5,None,2024-10-09 13h17.32.981379 +0530,
181,0,181,0,372.95756070001516,,372.9161478999886,5,372.95756070001516,372.95756070001516,0.016791399975772947,375.10933920001844,[0.04666666666666667],[-0.31],[1],[0],[0],[2.17671510000946],['Target'],02,001,2024-10-09_13h17.20.767,3.0 search,2024.1.5,None,2024-10-09 13h17.32.981379 +0530,
182,0,182,0,375.15446619997965,,375.11249799997313,5,375.15446619997965,375.15446619997965,0.016492900031153113,376.6568965999759,[0.20666666666666667],[0.26166666666666666],[1],[0],[0],[1.5282700000097975],['Target'],02,001,2024-10-09_13h17.20.767,3.0 search,2024.1.5,None,2024-10-09 13h17.32.981379 +0530,
183,0,183,0,376.70145330001833,,376.6600499000051,5,376.70145330001833,376.70145330001833,0.016393700032494962,378.0715333999833,[0.02],[0.32166666666666666],[1],[0],[0],[1.3952830999623984],['Target'],02,001,2024-10-09_13h17.20.767,3.0 search,2024.1.5,None,2024-10-09 13h17.32.981379 +0530,
184,0,184,0,378.1158975000144,,378.07473609998124,5,378.1158975000144,378.1158975000144,0.017214199993759394,380.1182750000153,[0.23666666666666666],[-0.25166666666666665],[1],[0],[0],[2.0266248999978416],['Target'],02,001,2024-10-09_13h17.20.767,3.0 search,2024.1.5,None,2024-10-09 13h17.32.981379 +0530,
185,0,185,0,380.1640015000012,,380.1214459000039,5,380.1640015000012,380.1640015000012,0.01698810001835227,381.9147675000131,[0.265],[0.27666666666666667],[1],[0],[0],[1.7765650000073947],['Target'],02,001,2024-10-09_13h17.20.767,3.0 search,2024.1.5,None,2024-10-09 13h17.32.981379 +0530,
186,0,186,0,381.9430504000047,,381.9177703000023,5,381.9430504000047,381.9430504000047,0.016128199989907444,383.28056549996836,[0.26],[0.2966666666666667],[1],[0],[0],[1.3468216999899596],['Target'],02,001,2024-10-09_13h17.20.767,3.0 search,2024.1.5,None,2024-10-09 13h17.32.981379 +0530,
187,0,187,0,383.3407277999795,,383.2836442000116,10,383.3407277999795,383.3407277999795,0.030746899952646345,385.2092573000118,[0.06],[-0.45],[1],[0],[0],[1.895035800000187],['Target'],02,001,2024-10-09_13h17.20.767,3.0 search,2024.1.5,None,2024-10-09 13h17.32.981379 +0530,
188,0,188,0,385.2714665000094,,385.2125185999903,10,385.2714665000094,385.2714665000094,0.031932099955156446,387.1067869999679,[-0.16833333333333333],[-0.16666666666666666],[1],[0],[0],[1.8627170999534428],['Target'],02,001,2024-10-09_13h17.20.767,3.0 search,2024.1.5,None,2024-10-09 13h17.32.981379 +0530,
189,0,189,0,387.1680529000005,,387.1098404999939,10,387.1680529000005,387.1680529000005,0.031713200034573674,388.7379507999867,[-0.11666666666666667],[0.055],[1],[0],[0],[1.596562399994582],['Target'],02,001,2024-10-09_13h17.20.767,3.0 search,2024.1.5,None,2024-10-09 13h17.32.981379 +0530,
190,0,190,0,388.7987187000108,,388.74100759997964,10,388.7987187000108,388.7987187000108,0.03129790001548827,390.7004611999728,[-0.405],[0.03],[1],[0],[0],[1.9282700000330806],['Target'],02,001,2024-10-09_13h17.20.767,3.0 search,2024.1.5,None,2024-10-09 13h17.32.981379 +0530,
191,0,191,0,390.74558649997925,,390.70368450001115,5,390.74558649997925,390.74558649997925,0.018047999998088926,393.163758700015,[0.215],[0.4116666666666667],[1],[0],[0],[2.44230970001081],[],02,001,2024-10-09_13h17.20.767,3.0 search,2024.1.5,None,2024-10-09 13h17.32.981379 +0530,
192,0,192,0,393.2249649000005,,393.16689539997606,10,393.2249649000005,393.2249649000005,0.03233159997034818,395.3602092000074,[-0.36],[0.15166666666666667],[1],[0],[0],[2.161221000016667],['Target'],02,001,2024-10-09_13h17.20.767,3.0 search,2024.1.5,None,2024-10-09 13h17.32.981379 +0530,
193,0,193,0,395.4047868999769,,395.36416080000345,5,395.4047868999769,395.4047868999769,0.016533499991055578,396.8085610999842,[0.39666666666666667],[0.22333333333333333],[1],[0],[0],[1.4281687999609858],['Target'],02,001,2024-10-09_13h17.20.767,3.0 search,2024.1.5,None,2024-10-09 13h17.32.981379 +0530,
194,0,194,0,396.85239239997463,,396.8132013999857,5,396.85239239997463,396.85239239997463,0.01651550002861768,398.7552411999786,[-0.19333333333333333],[-0.08666666666666667],[1],[0],[0],[1.926116299990099],['Target'],02,001,2024-10-09_13h17.20.767,3.0 search,2024.1.5,None,2024-10-09 13h17.32.981379 +0530,
195,0,195,0,398.7994106999831,,398.75833709997823,5,398.7994106999831,398.7994106999831,0.016997699975036085,401.5836960999877,[0.37],[-0.41],[1],[0],[0],[2.80859029997373],['Target'],02,001,2024-10-09_13h17.20.767,3.0 search,2024.1.5,None,2024-10-09 13h17.32.981379 +0530,
196,0,196,0,401.6446772000054,,401.58675650000805,10,401.6446772000054,401.6446772000054,0.03303260001121089,403.06293139996706,[0.23833333333333334],[-0.225],[1],[0],[0],[1.4433556000003591],['Target'],02,001,2024-10-09_13h17.20.767,3.0 search,2024.1.5,None,2024-10-09 13h17.32.981379 +0530,
197,0,197,0,403.1093557999702,,403.06639629998244,5,403.1093557999702,403.1093557999702,0.01759719999972731,405.95959360001143,[0.09],[0.485],[1],[0],[0],[2.8761916999937966],['Target'],02,001,2024-10-09_13h17.20.767,3.0 search,2024.1.5,None,2024-10-09 13h17.32.981379 +0530,
198,0,198,0,406.0226023999858,,405.9627614999772,10,406.0226023999858,406.0226023999858,0.031557300011627376,407.97364320000634,[0.13],[0.225],[1],[0],[0],[1.9795058000017889],['Target'],02,001,2024-10-09_13h17.20.767,3.0 search,2024.1.5,None,2024-10-09 13h17.32.981379 +0530,
199,0,199,0,408.0347403999767,,407.9768386000069,10,408.0347403999767,408.0347403999767,0.037528199958615005,410.534242899972,[-0.4766666666666667],[-0.36833333333333335],[1],[0],[0],[2.520129700016696],['Target'],02,001,2024-10-09_13h17.20.767,3.0 search,2024.1.5,None,2024-10-09 13h17.32.981379 +0530,
