pos,corr_resp,trials.thisRepN,trials.thisTrialN,trials.thisN,trials.thisIndex,trials_2.thisRepN,trials_2.thisTrialN,trials_2.thisN,trials_2.thisIndex,thisRow.t,notes,trial.started,fixation.started,line1.started,line2.started,line3.started,line4.started,fixation.stopped,probe.started,key_resp.started,trial.stopped,key_resp.keys,key_resp.corr,key_resp.rt,key_resp.duration,participant,session,date,expName,psychopyVersion,frameRate,expStart,
-150,z,0,0,0,0,,,,,0.013430599996354431,,0.008787200000369921,0.013430599996354431,1.0397366999823134,1.0397366999823134,1.0397366999823134,1.0397366999823134,1.045581399986986,2.0056517999910284,2.0056517999910284,2.658881299983477,z,1,0.4982988999981899,None,784868,001,2024-10-17_13h39.53.818,sequene learning,2024.1.5,None,2024-10-17 13h40.00.206054 +0530,
-50,x,0,1,1,1,,,,,2.6646339999861084,,2.6611174999852665,2.6646339999861084,3.6719052999978885,3.6719052999978885,3.6719052999978885,3.6719052999978885,3.6719052999978885,4.6718089999922086,4.6718089999922086,5.007070099993143,x,1,0.3296334999904502,None,784868,001,2024-10-17_13h39.53.818,sequene learning,2024.1.5,None,2024-10-17 13h40.00.206054 +0530,
50,c,0,2,2,2,,,,,5.021987499989336,,5.008546800003387,5.021987499989336,6.021582899993518,6.021582899993518,6.021582899993518,6.021582899993518,6.021582899993518,7.056074799998896,7.056074799998896,7.357487499975832,c,1,0.2931329999992158,None,784868,001,2024-10-17_13h39.53.818,sequene learning,2024.1.5,None,2024-10-17 13h40.00.206054 +0530,
150,v,0,3,3,3,,,,,7.401341299992055,,7.3583899999794085,7.401341299992055,8.370792899979278,8.370792899979278,8.370792899979278,8.370792899979278,8.404545600002166,9.370623399998294,9.370623399998294,9.706271000002744,v,1,0.3249552999914158,None,784868,001,2024-10-17_13h39.53.818,sequene learning,2024.1.5,None,2024-10-17 13h40.00.206054 +0530,
-150,z,1,0,4,0,,,,,9.720796299981885,,9.708772899990436,9.720796299981885,10.720669399976032,10.720669399976032,10.720669399976032,10.720669399976032,10.720669399976032,11.72022139999899,11.72022139999899,12.056287599989446,z,1,0.32299469999270514,None,784868,001,2024-10-17_13h39.53.818,sequene learning,2024.1.5,None,2024-10-17 13h40.00.206054 +0530,
-50,x,1,1,5,1,,,,,12.070582299988018,,12.057983299979242,12.070582299988018,13.06967289999011,13.06967289999011,13.06967289999011,13.06967289999011,13.06967289999011,14.069879899994703,14.069879899994703,14.354777000000468,x,1,0.2788740999822039,None,784868,001,2024-10-17_13h39.53.818,sequene learning,2024.1.5,None,2024-10-17 13h40.00.206054 +0530,
50,c,1,2,6,2,,,,,14.369710300001316,,14.356078499986324,14.369710300001316,15.369649699976435,15.369649699976435,15.369649699976435,15.369649699976435,15.369649699976435,16.369733200001065,16.369733200001065,16.705091399984667,c,1,0.3235348000016529,None,784868,001,2024-10-17_13h39.53.818,sequene learning,2024.1.5,None,2024-10-17 13h40.00.206054 +0530,
150,v,1,3,7,3,,,,,16.719166099996073,,16.706534199998714,16.719166099996073,17.718986899999436,17.718986899999436,17.718986899999436,17.718986899999436,17.718986899999436,18.718665899999905,18.718665899999905,18.97059579999768,v,1,0.24297190000652336,None,784868,001,2024-10-17_13h39.53.818,sequene learning,2024.1.5,None,2024-10-17 13h40.00.206054 +0530,
-150,z,2,0,8,0,,,,,18.98558629999752,,18.971769299998414,18.98558629999752,19.98552459999337,19.98552459999337,19.98552459999337,19.98552459999337,19.98552459999337,20.985381599981338,20.985381599981338,21.55442589998711,z,1,0.5532426999998279,None,784868,001,2024-10-17_13h39.53.818,sequene learning,2024.1.5,None,2024-10-17 13h40.00.206054 +0530,
-50,x,2,1,9,1,,,,,21.56819649998215,,21.55661329999566,21.56819649998215,22.567689699993934,22.567689699993934,22.567689699993934,22.567689699993934,22.567689699993934,23.567744400002994,23.567744400002994,23.886122399999294,x,1,0.31347370002185926,None,784868,001,2024-10-17_13h39.53.818,sequene learning,2024.1.5,None,2024-10-17 13h40.00.206054 +0530,
50,c,2,2,10,2,,,,,23.93158589999075,,23.88741039999877,23.93158589999075,24.90083919998142,24.90083919998142,24.90083919998142,24.90083919998142,24.934298399981344,25.90103929999168,25.90103929999168,26.25222979998216,c,1,0.33630389999598265,None,784868,001,2024-10-17_13h39.53.818,sequene learning,2024.1.5,None,2024-10-17 13h40.00.206054 +0530,
150,v,2,3,11,3,,,,,26.26720309999655,,26.25350009999238,26.26720309999655,27.26688299997477,27.26688299997477,27.26688299997477,27.26688299997477,27.26688299997477,28.26657680000062,28.26657680000062,28.517164899996715,v,1,0.24466100000427105,None,784868,001,2024-10-17_13h39.53.818,sequene learning,2024.1.5,None,2024-10-17 13h40.00.206054 +0530,
-150,z,3,0,12,0,,,,,28.533442299987655,,28.518515499978093,28.533442299987655,29.53300669998862,29.53300669998862,29.53300669998862,29.53300669998862,29.53300669998862,30.532804299989948,30.532804299989948,30.81684519999544,z,1,0.2721847000066191,None,784868,001,2024-10-17_13h39.53.818,sequene learning,2024.1.5,None,2024-10-17 13h40.00.206054 +0530,
-50,x,3,1,13,1,,,,,30.832669199997326,,30.817994499986526,30.832669199997326,31.832542599993758,31.832542599993758,31.832542599993758,31.832542599993758,31.832542599993758,32.83238619999611,32.83238619999611,33.16791269998066,x,1,0.31834389999858104,None,784868,001,2024-10-17_13h39.53.818,sequene learning,2024.1.5,None,2024-10-17 13h40.00.206054 +0530,
50,c,3,2,14,2,,,,,33.182485199999064,,33.16915479997988,33.182485199999064,34.182361499988474,34.182361499988474,34.182361499988474,34.182361499988474,34.182361499988474,35.181790199974785,35.181790199974785,35.51636300000246,c,1,0.3268898999958765,None,784868,001,2024-10-17_13h39.53.818,sequene learning,2024.1.5,None,2024-10-17 13h40.00.206054 +0530,
150,v,3,3,15,3,,,,,35.53174679999938,,35.51739279998583,35.53174679999938,36.53186779998941,36.53186779998941,36.53186779998941,36.53186779998941,36.53186779998941,37.51431249998859,37.51431249998859,37.64930459999596,v,1,0.13145179999992251,None,784868,001,2024-10-17_13h39.53.818,sequene learning,2024.1.5,None,2024-10-17 13h40.00.206054 +0530,
-150,z,4,0,16,0,,,,,37.66464279999491,,37.65004209999461,37.66464279999491,38.66441169998143,38.66441169998143,38.66441169998143,38.66441169998143,38.66441169998143,39.664461799984565,39.664461799984565,39.85005729997647,z,1,0.16990989999612793,None,784868,001,2024-10-17_13h39.53.818,sequene learning,2024.1.5,None,2024-10-17 13h40.00.206054 +0530,
-50,x,4,1,17,1,,,,,39.86442279999028,,39.85162699999637,39.86442279999028,40.86411799999769,40.86411799999769,40.86411799999769,40.86411799999769,40.86411799999769,41.8638017999765,41.8638017999765,42.099345099995844,x,1,0.23035559998243116,None,784868,001,2024-10-17_13h39.53.818,sequene learning,2024.1.5,None,2024-10-17 13h40.00.206054 +0530,
50,c,4,2,18,2,,,,,42.11395979998633,,42.10056929997518,42.11395979998633,43.11352569999872,43.11352569999872,43.11352569999872,43.11352569999872,43.11352569999872,44.113152199977776,44.113152199977776,45.19771629999741,c,1,1.0730648000026122,None,784868,001,2024-10-17_13h39.53.818,sequene learning,2024.1.5,None,2024-10-17 13h40.00.206054 +0530,
150,v,4,3,19,3,,,,,45.212999999988824,,45.199099199991906,45.212999999988824,46.212570899981074,46.212570899981074,46.212570899981074,46.212570899981074,46.212570899981074,47.21245179997641,47.21245179997641,47.61346669998602,v,1,0.38914240000303835,None,784868,001,2024-10-17_13h39.53.818,sequene learning,2024.1.5,None,2024-10-17 13h40.00.206054 +0530,
-150,z,5,0,20,0,,,,,47.62947709998116,,47.61569089998375,47.62947709998116,48.62947419998818,48.62947419998818,48.62947419998818,48.62947419998818,48.62947419998818,49.62896429997636,49.62896429997636,50.063268199999584,z,1,0.42566639999859035,None,784868,001,2024-10-17_13h39.53.818,sequene learning,2024.1.5,None,2024-10-17 13h40.00.206054 +0530,
-50,x,5,1,21,1,,,,,50.07875489999424,,50.06525369998417,50.07875489999424,51.07886999999755,51.07886999999755,51.07886999999755,51.07886999999755,51.07886999999755,52.079012799978955,52.079012799978955,52.58008349998272,x,1,0.49153889997978695,None,784868,001,2024-10-17_13h39.53.818,sequene learning,2024.1.5,None,2024-10-17 13h40.00.206054 +0530,
50,c,5,2,22,2,,,,,52.59490409999853,,52.581322299985914,52.59490409999853,53.59454879999976,53.59454879999976,53.59454879999976,53.59454879999976,53.59454879999976,54.594502699997975,54.594502699997975,54.89590779997525,c,1,0.2983143999881577,None,784868,001,2024-10-17_13h39.53.818,sequene learning,2024.1.5,None,2024-10-17 13h40.00.206054 +0530,
150,v,5,3,23,3,,,,,54.9109952999861,,54.89722269997583,54.9109952999861,55.91055709999637,55.91055709999637,55.91055709999637,55.91055709999637,55.91055709999637,56.91055819997564,56.91055819997564,57.32873159999144,v,1,0.41577910000341944,None,784868,001,2024-10-17_13h39.53.818,sequene learning,2024.1.5,None,2024-10-17 13h40.00.206054 +0530,
-150,z,6,0,24,0,,,,,57.343809699988924,,57.329949099977966,57.343809699988924,58.343855799990706,58.343855799990706,58.343855799990706,58.343855799990706,58.343855799990706,59.34351509998669,59.34351509998669,59.978278800001135,z,1,0.6204991999838967,None,784868,001,2024-10-17_13h39.53.818,sequene learning,2024.1.5,None,2024-10-17 13h40.00.206054 +0530,
-50,x,6,1,25,1,,,,,59.993440599995665,,59.979782799986424,59.993440599995665,60.993387900001835,60.993387900001835,60.993387900001835,60.993387900001835,60.993387900001835,61.993124100001296,61.993124100001296,62.41125259999535,x,1,0.4017466999939643,None,784868,001,2024-10-17_13h39.53.818,sequene learning,2024.1.5,None,2024-10-17 13h40.00.206054 +0530,
50,c,6,2,26,2,,,,,62.42608839998138,,62.41314589997637,62.42608839998138,63.42596809999668,63.42596809999668,63.42596809999668,63.42596809999668,63.42596809999668,64.42590740000014,64.42590740000014,64.8601917999913,c,1,0.42867419999674894,None,784868,001,2024-10-17_13h39.53.818,sequene learning,2024.1.5,None,2024-10-17 13h40.00.206054 +0530,
150,v,6,3,27,3,,,,,64.87561629997799,,64.86122009999235,64.87561629997799,65.87539569998626,65.87539569998626,65.87539569998626,65.87539569998626,65.87539569998626,66.87528779997956,66.87528779997956,67.22586379997665,v,1,0.3411556999781169,None,784868,001,2024-10-17_13h39.53.818,sequene learning,2024.1.5,None,2024-10-17 13h40.00.206054 +0530,
-150,z,7,0,28,0,,,,,67.2420350999746,,67.22681079999893,67.2420350999746,68.24159949997556,68.24159949997556,68.24159949997556,68.24159949997556,68.24159949997556,69.24128539999947,69.24128539999947,69.74261419998948,z,1,0.49603060001390986,None,784868,001,2024-10-17_13h39.53.818,sequene learning,2024.1.5,None,2024-10-17 13h40.00.206054 +0530,
-50,x,7,1,29,1,,,,,69.7579654000001,,69.7440241999866,69.7579654000001,70.75762930000201,70.75762930000201,70.75762930000201,70.75762930000201,70.75762930000201,71.75748999998905,71.75748999998905,72.27506249997532,x,1,0.5128090000071097,None,784868,001,2024-10-17_13h39.53.818,sequene learning,2024.1.5,None,2024-10-17 13h40.00.206054 +0530,
50,c,7,2,30,2,,,,,72.29055279999739,,72.27596529998118,72.29055279999739,73.29045380000025,73.29045380000025,73.29045380000025,73.29045380000025,73.29045380000025,74.2902999999933,74.2902999999933,74.69105199998012,c,1,0.3916345000034198,None,784868,001,2024-10-17_13h39.53.818,sequene learning,2024.1.5,None,2024-10-17 13h40.00.206054 +0530,
150,v,7,3,31,3,,,,,74.70667849999154,,74.69196679999004,74.70667849999154,75.70673929998884,75.70673929998884,75.70673929998884,75.70673929998884,75.70673929998884,76.70634929998778,76.70634929998778,77.17399509999086,v,1,0.46525629999814555,None,784868,001,2024-10-17_13h39.53.818,sequene learning,2024.1.5,None,2024-10-17 13h40.00.206054 +0530,
-150,z,8,0,32,0,,,,,77.18964569998207,,77.17523709998932,77.18964569998207,78.18990040000062,78.18990040000062,78.18990040000062,78.18990040000062,78.18990040000062,79.18972919997759,79.18972919997759,79.87351399997715,z,1,0.6768942000053357,None,784868,001,2024-10-17_13h39.53.818,sequene learning,2024.1.5,None,2024-10-17 13h40.00.206054 +0530,
-50,x,8,1,33,1,,,,,79.8889028999838,,79.87445179998758,79.8889028999838,80.88944279999123,80.88944279999123,80.88944279999123,80.88944279999123,80.88944279999123,81.88890169997467,81.88890169997467,82.22334460000275,x,1,0.317187600012403,None,784868,001,2024-10-17_13h39.53.818,sequene learning,2024.1.5,None,2024-10-17 13h40.00.206054 +0530,
50,c,8,2,34,2,,,,,82.23860919999424,,82.22452239997801,82.23860919999424,83.23865349998232,83.23865349998232,83.23865349998232,83.23865349998232,83.23865349998232,84.23830339999404,84.23830339999404,84.70558690000325,c,1,0.46362819999922067,None,784868,001,2024-10-17_13h39.53.818,sequene learning,2024.1.5,None,2024-10-17 13h40.00.206054 +0530,
150,v,8,3,35,3,,,,,84.72118299998692,,84.70683069998631,84.72118299998692,85.72117069998058,85.72117069998058,85.72117069998058,85.72117069998058,85.72117069998058,86.7213100999943,86.7213100999943,87.05541049997555,v,1,0.3308995999977924,None,784868,001,2024-10-17_13h39.53.818,sequene learning,2024.1.5,None,2024-10-17 13h40.00.206054 +0530,
-150,z,9,0,36,0,,,,,87.07097259999136,,87.05684019997716,87.07097259999136,88.07073929999024,88.07073929999024,88.07073929999024,88.07073929999024,88.07073929999024,89.07089119998273,89.07089119998273,89.73828510000021,z,1,0.660614299995359,None,784868,001,2024-10-17_13h39.53.818,sequene learning,2024.1.5,None,2024-10-17 13h40.00.206054 +0530,
-50,x,9,1,37,1,,,,,89.75372079998488,,89.73962159999064,89.75372079998488,90.75370059997658,90.75370059997658,90.75370059997658,90.75370059997658,90.75370059997658,91.75336589998915,91.75336589998915,92.35446189998765,x,1,0.5859832999994978,None,784868,001,2024-10-17_13h39.53.818,sequene learning,2024.1.5,None,2024-10-17 13h40.00.206054 +0530,
50,c,9,2,38,2,,,,,92.37033569999039,,92.3557879999862,92.37033569999039,93.36962769998354,93.36962769998354,93.36962769998354,93.36962769998354,93.36962769998354,94.36942709999857,94.36942709999857,94.82000859998516,c,1,0.43523970001842827,None,784868,001,2024-10-17_13h39.53.818,sequene learning,2024.1.5,None,2024-10-17 13h40.00.206054 +0530,
150,v,9,3,39,3,,,,,94.83603169998969,,94.82102389997453,94.83603169998969,95.8353206999891,95.8353206999891,95.8353206999891,95.8353206999891,95.8353206999891,96.83555709998473,96.83555709998473,97.53679049998755,v,1,0.6971304999897256,None,784868,001,2024-10-17_13h39.53.818,sequene learning,2024.1.5,None,2024-10-17 13h40.00.206054 +0530,
-150,z,10,0,40,0,,,,,97.55188189999899,,97.5381152999762,97.55188189999899,98.55147659999784,98.55147659999784,98.55147659999784,98.55147659999784,98.55147659999784,99.5512709999748,99.5512709999748,100.00270829998772,z,1,0.4389628999924753,None,784868,001,2024-10-17_13h39.53.818,sequene learning,2024.1.5,None,2024-10-17 13h40.00.206054 +0530,
-50,x,10,1,41,1,,,,,100.01840030000312,,100.0042756999901,100.01840030000312,101.01800179999555,101.01800179999555,101.01800179999555,101.01800179999555,101.01800179999555,102.01796599998488,102.01796599998488,102.47004409998772,x,1,0.4425768000073731,None,784868,001,2024-10-17_13h39.53.818,sequene learning,2024.1.5,None,2024-10-17 13h40.00.206054 +0530,
50,c,10,2,42,2,,,,,102.48446039998089,,102.47184189999825,102.48446039998089,103.48391569999512,103.48391569999512,103.48391569999512,103.48391569999512,103.48391569999512,104.48377689998597,104.48377689998597,104.9358249999932,c,1,0.43589230001089163,None,784868,001,2024-10-17_13h39.53.818,sequene learning,2024.1.5,None,2024-10-17 13h40.00.206054 +0530,
150,v,10,3,43,3,,,,,104.95036899999832,,104.93752219999442,104.95036899999832,105.9504420000012,105.9504420000012,105.9504420000012,105.9504420000012,105.9504420000012,106.94975079997675,106.94975079997675,107.26750519999769,v,1,0.31426749998354353,None,784868,001,2024-10-17_13h39.53.818,sequene learning,2024.1.5,None,2024-10-17 13h40.00.206054 +0530,
-150,z,11,0,44,0,,,,,107.28317049998441,,107.2680890999909,107.28317049998441,108.28341219999129,108.28341219999129,108.28341219999129,108.28341219999129,108.28341219999129,109.28277550000348,109.28277550000348,109.61743669997668,z,1,0.3271437999792397,None,784868,001,2024-10-17_13h39.53.818,sequene learning,2024.1.5,None,2024-10-17 13h40.00.206054 +0530,
-50,x,11,1,45,1,,,,,109.6330952999997,,109.61882609999157,109.6330952999997,110.63263739997637,110.63263739997637,110.63263739997637,110.63263739997637,110.63263739997637,111.63270139999804,111.63270139999804,111.93779929997982,x,1,0.2885944000154268,None,784868,001,2024-10-17_13h39.53.818,sequene learning,2024.1.5,None,2024-10-17 13h40.00.206054 +0530,
50,c,11,2,46,2,,,,,111.94860949998838,,111.93903699997463,111.94860949998838,112.94874299998628,112.94874299998628,112.94874299998628,112.94874299998628,112.94874299998628,113.94826479998301,113.94826479998301,114.21663969999645,c,1,0.2643903999996837,None,784868,001,2024-10-17_13h39.53.818,sequene learning,2024.1.5,None,2024-10-17 13h40.00.206054 +0530,
150,v,11,3,47,3,,,,,114.23173369999859,,114.21804089998477,114.23173369999859,115.23197139997501,115.23197139997501,115.23197139997501,115.23197139997501,115.23197139997501,116.23157889998402,116.23157889998402,116.54890739999246,v,1,0.3024165000242647,None,784868,001,2024-10-17_13h39.53.818,sequene learning,2024.1.5,None,2024-10-17 13h40.00.206054 +0530,
-150,z,12,0,48,0,,,,,116.56453709999914,,116.55013989997678,116.56453709999914,117.56463879998773,117.56463879998773,117.56463879998773,117.56463879998773,117.56463879998773,118.56396609998774,118.56396609998774,118.91546819999348,z,1,0.3434101000020746,None,784868,001,2024-10-17_13h39.53.818,sequene learning,2024.1.5,None,2024-10-17 13h40.00.206054 +0530,
-50,x,12,1,49,1,,,,,118.93080679999548,,118.91649849998066,118.93080679999548,119.93086809999659,119.93086809999659,119.93086809999659,119.93086809999659,119.93086809999659,120.93042669998249,120.93042669998249,121.23446549999062,x,1,0.2999617999885231,None,784868,001,2024-10-17_13h39.53.818,sequene learning,2024.1.5,None,2024-10-17 13h40.00.206054 +0530,
50,c,12,2,50,2,,,,,121.24693219998153,,121.23605559999123,121.24693219998153,122.2471764999791,122.2471764999791,122.2471764999791,122.2471764999791,122.2471764999791,123.24635719999787,123.24635719999787,123.61479049999616,c,1,0.3569654000166338,None,784868,001,2024-10-17_13h39.53.818,sequene learning,2024.1.5,None,2024-10-17 13h40.00.206054 +0530,
150,v,12,3,51,3,,,,,123.62978679998196,,123.61610919999657,123.62978679998196,124.62976979999803,124.62976979999803,124.62976979999803,124.62976979999803,124.62976979999803,125.62944649998099,125.62944649998099,126.06580199999735,v,1,0.418584999977611,None,784868,001,2024-10-17_13h39.53.818,sequene learning,2024.1.5,None,2024-10-17 13h40.00.206054 +0530,
-150,z,13,0,52,0,,,,,126.0795360999764,,126.06761279999046,126.0795360999764,127.07953950000228,127.07953950000228,127.07953950000228,127.07953950000228,127.07953950000228,128.07880560000194,128.07880560000194,128.6305850999779,z,1,0.5485882999782916,None,784868,001,2024-10-17_13h39.53.818,sequene learning,2024.1.5,None,2024-10-17 13h40.00.206054 +0530,
-50,x,13,1,53,1,,,,,128.64537759998348,,128.63245799997821,128.64537759998348,129.64484809999703,129.64484809999703,129.64484809999703,129.64484809999703,129.64484809999703,130.64495379998698,130.64495379998698,131.03065739999874,x,1,0.37275169999338686,None,784868,001,2024-10-17_13h39.53.818,sequene learning,2024.1.5,None,2024-10-17 13h40.00.206054 +0530,
50,c,13,2,54,2,,,,,131.04551259998698,,131.03232069997466,131.04551259998698,132.04457509997883,132.04457509997883,132.04457509997883,132.04457509997883,132.04457509997883,133.0445628000016,133.0445628000016,133.3629339999752,c,1,0.31257959999493323,None,784868,001,2024-10-17_13h39.53.818,sequene learning,2024.1.5,None,2024-10-17 13h40.00.206054 +0530,
150,v,13,3,55,3,,,,,133.3777957999846,,133.36426299999584,133.3777957999846,134.37732030000188,134.37732030000188,134.37732030000188,134.37732030000188,134.37732030000188,135.37715249997564,135.37715249997564,135.6784331999952,v,1,0.2990062000171747,None,784868,001,2024-10-17_13h39.53.818,sequene learning,2024.1.5,None,2024-10-17 13h40.00.206054 +0530,
-150,z,14,0,56,0,,,,,135.69360889997915,,135.67974279998452,135.69360889997915,136.69347669999115,136.69347669999115,136.69347669999115,136.69347669999115,136.69347669999115,137.69341819998226,137.69341819998226,137.96141349998652,z,1,0.2640335999894887,None,784868,001,2024-10-17_13h39.53.818,sequene learning,2024.1.5,None,2024-10-17 13h40.00.206054 +0530,
-50,x,14,1,57,1,,,,,137.97664949999307,,137.96280329997535,137.97664949999307,138.97683790000156,138.97683790000156,138.97683790000156,138.97683790000156,138.97683790000156,139.97674559999723,139.97674559999723,140.27869320000173,x,1,0.2900030000018887,None,784868,001,2024-10-17_13h39.53.818,sequene learning,2024.1.5,None,2024-10-17 13h40.00.206054 +0530,
50,c,14,2,58,2,,,,,140.29291459999513,,140.28024130000267,140.29291459999513,141.2927892000007,141.2927892000007,141.2927892000007,141.2927892000007,141.2927892000007,142.2927720999869,142.2927720999869,142.6616226999904,c,1,0.3535676999890711,None,784868,001,2024-10-17_13h39.53.818,sequene learning,2024.1.5,None,2024-10-17 13h40.00.206054 +0530,
150,v,14,3,59,3,,,,,142.6758810999745,,142.66411129999324,142.6758810999745,143.67665879998822,143.67665879998822,143.67665879998822,143.67665879998822,143.67665879998822,144.67567639998742,144.67567639998742,145.16079539997736,v,1,0.4736001999990549,None,784868,001,2024-10-17_13h39.53.818,sequene learning,2024.1.5,None,2024-10-17 13h40.00.206054 +0530,
-150,z,15,0,60,0,,,,,145.17511719997856,,145.16323089998332,145.17511719997856,146.17484559997683,146.17484559997683,146.17484559997683,146.17484559997683,146.17484559997683,147.17472219999763,147.17472219999763,148.12562710000202,z,1,0.937188400013838,None,784868,001,2024-10-17_13h39.53.818,sequene learning,2024.1.5,None,2024-10-17 13h40.00.206054 +0530,
-50,x,15,1,61,1,,,,,148.14104170000064,,148.12678089999827,148.14104170000064,149.1410068999976,149.1410068999976,149.1410068999976,149.1410068999976,149.1410068999976,150.1407439999748,150.1407439999748,150.67629389997455,x,1,0.5324636000150349,None,784868,001,2024-10-17_13h39.53.818,sequene learning,2024.1.5,None,2024-10-17 13h40.00.206054 +0530,
50,c,15,2,62,2,,,,,150.69106979999924,,150.67780919998768,150.69106979999924,151.69073169998592,151.69073169998592,151.69073169998592,151.69073169998592,151.69073169998592,152.6898411999864,152.6898411999864,153.0255300999852,c,1,0.3306827000051271,None,784868,001,2024-10-17_13h39.53.818,sequene learning,2024.1.5,None,2024-10-17 13h40.00.206054 +0530,
150,v,15,3,63,3,,,,,153.0402326999756,,153.02690430000075,153.0402326999756,154.0396730999928,154.0396730999928,154.0396730999928,154.0396730999928,154.0396730999928,155.03973299998324,155.03973299998324,155.4750675999967,v,1,0.41776879999088123,None,784868,001,2024-10-17_13h39.53.818,sequene learning,2024.1.5,None,2024-10-17 13h40.00.206054 +0530,
-150,z,16,0,64,0,,,,,155.4899088999955,,155.47643579999567,155.4899088999955,156.48947219998809,156.48947219998809,156.48947219998809,156.48947219998809,156.48947219998809,157.48912869999185,157.48912869999185,157.7405385999882,z,1,0.24737749999621883,None,784868,001,2024-10-17_13h39.53.818,sequene learning,2024.1.5,None,2024-10-17 13h40.00.206054 +0530,
-50,x,16,1,65,1,,,,,157.75789069998427,,157.7422650999797,157.75789069998427,158.75582489999942,158.75582489999942,158.75582489999942,158.75582489999942,158.77268470000126,159.7554766999965,159.7554766999965,160.1736948999751,x,1,0.4057240999827627,None,784868,001,2024-10-17_13h39.53.818,sequene learning,2024.1.5,None,2024-10-17 13h40.00.206054 +0530,
50,c,16,2,66,2,,,,,160.18850029999157,,160.17528559998027,160.18850029999157,161.18850779999048,161.18850779999048,161.18850779999048,161.18850779999048,161.18850779999048,162.1883263999771,162.1883263999771,162.53948149998905,c,1,0.33603959999163635,None,784868,001,2024-10-17_13h39.53.818,sequene learning,2024.1.5,None,2024-10-17 13h40.00.206054 +0530,
150,v,16,3,67,3,,,,,162.55480769998394,,162.54117529999348,162.55480769998394,163.55477919999976,163.55477919999976,163.55477919999976,163.55477919999976,163.55477919999976,164.5543798999861,164.5543798999861,164.8919043999922,v,1,0.3264377000159584,None,784868,001,2024-10-17_13h39.53.818,sequene learning,2024.1.5,None,2024-10-17 13h40.00.206054 +0530,
-150,z,17,0,68,0,,,,,164.90443929997855,,164.8930790000013,164.90443929997855,165.90424269999494,165.90424269999494,165.90424269999494,165.90424269999494,165.90424269999494,166.9037889999745,166.9037889999745,167.23754269999336,z,1,0.33195920000434853,None,784868,001,2024-10-17_13h39.53.818,sequene learning,2024.1.5,None,2024-10-17 13h40.00.206054 +0530,
-50,x,17,1,69,1,,,,,167.25362129998393,,167.2382299999881,167.25362129998393,168.23696039998322,168.23696039998322,168.23696039998322,168.23696039998322,168.2536162000033,169.2533065000025,169.2533065000025,169.78897829999914,x,1,0.5220149000233505,None,784868,001,2024-10-17_13h39.53.818,sequene learning,2024.1.5,None,2024-10-17 13h40.00.206054 +0530,
50,c,17,2,70,2,,,,,169.8032134999812,,169.79033289998188,169.8032134999812,170.80335849997937,170.80335849997937,170.80335849997937,170.80335849997937,170.80335849997937,171.80308889999287,171.80308889999287,172.8046501999779,c,1,0.9958382000040729,None,784868,001,2024-10-17_13h39.53.818,sequene learning,2024.1.5,None,2024-10-17 13h40.00.206054 +0530,
150,v,17,3,71,3,,,,,172.81964039997547,,172.80613519999315,172.81964039997547,173.8190631000034,173.8190631000034,173.8190631000034,173.8190631000034,173.8190631000034,174.81900999997742,174.81900999997742,175.17086549999658,v,1,0.33729830000083894,None,784868,001,2024-10-17_13h39.53.818,sequene learning,2024.1.5,None,2024-10-17 13h40.00.206054 +0530,
-150,z,18,0,72,0,,,,,175.18547050000052,,175.17247689998476,175.18547050000052,176.1851395999838,176.1851395999838,176.1851395999838,176.1851395999838,176.1851395999838,177.1849170999776,177.1849170999776,177.85257659998024,z,1,0.6602286999986973,None,784868,001,2024-10-17_13h39.53.818,sequene learning,2024.1.5,None,2024-10-17 13h40.00.206054 +0530,
-50,x,18,1,73,1,,,,,177.86827249999624,,177.85356829999364,177.86827249999624,178.86825469997711,178.86825469997711,178.86825469997711,178.86825469997711,178.86825469997711,179.86830559998634,179.86830559998634,180.71845939999912,x,1,0.8395342000003438,None,784868,001,2024-10-17_13h39.53.818,sequene learning,2024.1.5,None,2024-10-17 13h40.00.206054 +0530,
50,c,18,2,74,2,,,,,180.73403569997754,,180.719168599986,180.73403569997754,181.73396589999902,181.73396589999902,181.73396589999902,181.73396589999902,181.73396589999902,182.73440649997792,182.73440649997792,183.40295129999868,c,1,0.6646181000105571,None,784868,001,2024-10-17_13h39.53.818,sequene learning,2024.1.5,None,2024-10-17 13h40.00.206054 +0530,
150,v,18,3,75,3,,,,,183.41718409999157,,183.40441469999496,183.41718409999157,184.41705989997718,184.41705989997718,184.41705989997718,184.41705989997718,184.41705989997718,185.4167213999899,185.4167213999899,187.0004599999811,v,1,1.5722002999973483,None,784868,001,2024-10-17_13h39.53.818,sequene learning,2024.1.5,None,2024-10-17 13h40.00.206054 +0530,
-150,z,19,0,76,0,,,,,187.01625429998967,,187.0015872999793,187.01625429998967,188.01671830000123,188.01671830000123,188.01671830000123,188.01671830000123,188.01671830000123,189.01641169999493,189.01641169999493,189.3351814999769,z,1,0.3120612000057008,None,784868,001,2024-10-17_13h39.53.818,sequene learning,2024.1.5,None,2024-10-17 13h40.00.206054 +0530,
-50,x,19,1,77,1,,,,,189.34945629999856,,189.3365775999846,189.34945629999856,190.3488610999775,190.3488610999775,190.3488610999775,190.3488610999775,190.3488610999775,191.35067439998966,191.35067439998966,191.6842630999745,x,1,0.3264966999995522,None,784868,001,2024-10-17_13h39.53.818,sequene learning,2024.1.5,None,2024-10-17 13h40.00.206054 +0530,
50,c,19,2,78,2,,,,,191.6988366000005,,191.6857980999921,191.6988366000005,192.69858179998118,192.69858179998118,192.69858179998118,192.69858179998118,192.69858179998118,193.69822540000314,193.69822540000314,194.03243319998728,c,1,0.32984160000341944,None,784868,001,2024-10-17_13h39.53.818,sequene learning,2024.1.5,None,2024-10-17 13h40.00.206054 +0530,
150,v,19,3,79,3,,,,,194.04855639999732,,194.03369669997483,194.04855639999732,195.04806760000065,195.04806760000065,195.04806760000065,195.04806760000065,195.04806760000065,196.04775849997532,196.04775849997532,196.35002659997554,v,1,0.28840950000449084,None,784868,001,2024-10-17_13h39.53.818,sequene learning,2024.1.5,None,2024-10-17 13h40.00.206054 +0530,
-150,z,20,0,80,0,,,,,196.36444559998927,,196.35165739999502,196.36444559998927,197.36418360000243,197.36418360000243,197.36418360000243,197.36418360000243,197.36418360000243,198.3638321000035,198.3638321000035,198.81538309997995,z,1,0.4466205000062473,None,784868,001,2024-10-17_13h39.53.818,sequene learning,2024.1.5,None,2024-10-17 13h40.00.206054 +0530,
-50,x,20,1,81,1,,,,,198.8304511999886,,198.81649919998017,198.8304511999886,199.83049890000257,199.83049890000257,199.83049890000257,199.83049890000257,199.83049890000257,200.82990569999674,200.82990569999674,201.43114079997758,x,1,0.5934566000069026,None,784868,001,2024-10-17_13h39.53.818,sequene learning,2024.1.5,None,2024-10-17 13h40.00.206054 +0530,
50,c,20,2,82,2,,,,,201.44633559999056,,201.43210739997448,201.44633559999056,202.44675319999806,202.44675319999806,202.44675319999806,202.44675319999806,202.44675319999806,203.44637059999513,203.44637059999513,203.9151713999745,c,1,0.4596439999877475,None,784868,001,2024-10-17_13h39.53.818,sequene learning,2024.1.5,None,2024-10-17 13h40.00.206054 +0530,
150,v,20,3,83,3,,,,,203.92931839998346,,203.91663689998677,203.92931839998346,204.92936809998355,204.92936809998355,204.92936809998355,204.92936809998355,204.92936809998355,205.92902939999476,205.92902939999476,206.29711719998159,v,1,0.35606260001077317,None,784868,001,2024-10-17_13h39.53.818,sequene learning,2024.1.5,None,2024-10-17 13h40.00.206054 +0530,
-150,z,21,0,84,0,,,,,206.31233849999262,,206.2988821999752,206.31233849999262,207.31202379998285,207.31202379998285,207.31202379998285,207.31202379998285,207.31202379998285,208.3117435000022,208.3117435000022,209.07916389999446,z,1,0.7532347000087611,None,784868,001,2024-10-17_13h39.53.818,sequene learning,2024.1.5,None,2024-10-17 13h40.00.206054 +0530,
-50,x,21,1,85,1,,,,,209.09498659998644,,209.08053989999462,209.09498659998644,210.0947977999749,210.0947977999749,210.0947977999749,210.0947977999749,210.0947977999749,211.09458019997692,211.09458019997692,211.49575569998706,x,1,0.3927075999963563,None,784868,001,2024-10-17_13h39.53.818,sequene learning,2024.1.5,None,2024-10-17 13h40.00.206054 +0530,
50,c,21,2,86,2,,,,,211.51136709999992,,211.49712210000143,211.51136709999992,212.51102730000275,212.51102730000275,212.51102730000275,212.51102730000275,212.51102730000275,213.51069629998528,213.51069629998528,213.81261189997895,c,1,0.285532299982151,None,784868,001,2024-10-17_13h39.53.818,sequene learning,2024.1.5,None,2024-10-17 13h40.00.206054 +0530,
150,v,21,3,87,3,,,,,213.82753219999722,,213.81403280000086,213.82753219999722,214.82718469999963,214.82718469999963,214.82718469999963,214.82718469999963,214.82718469999963,215.8269896999991,215.8269896999991,216.16263109998545,v,1,0.3315663000103086,None,784868,001,2024-10-17_13h39.53.818,sequene learning,2024.1.5,None,2024-10-17 13h40.00.206054 +0530,
-150,z,22,0,88,0,,,,,216.17667610000353,,216.16429159999825,216.17667610000353,217.17645229998743,217.17645229998743,217.17645229998743,217.17645229998743,217.17645229998743,218.1766895999899,218.1766895999899,218.6941600999853,z,1,0.5081142000271939,None,784868,001,2024-10-17_13h39.53.818,sequene learning,2024.1.5,None,2024-10-17 13h40.00.206054 +0530,
-50,x,22,1,89,1,,,,,218.70959459998994,,218.69528409998748,218.70959459998994,219.70987890000106,219.70987890000106,219.70987890000106,219.70987890000106,219.70987890000106,220.70973919998505,220.70973919998505,220.993839999981,x,1,0.2741134000243619,None,784868,001,2024-10-17_13h39.53.818,sequene learning,2024.1.5,None,2024-10-17 13h40.00.206054 +0530,
50,c,22,2,90,2,,,,,221.00883330000215,,220.99452889998793,221.00883330000215,222.00918899997487,222.00918899997487,222.00918899997487,222.00918899997487,222.00918899997487,223.00871139997616,223.00871139997616,223.34311719998368,c,1,0.3303279000101611,None,784868,001,2024-10-17_13h39.53.818,sequene learning,2024.1.5,None,2024-10-17 13h40.00.206054 +0530,
150,v,22,3,91,3,,,,,223.35846029999084,,223.3446239999903,223.35846029999084,224.35830649998388,224.35830649998388,224.35830649998388,224.35830649998388,224.35830649998388,225.35833529999945,225.35833529999945,225.84242599998834,v,1,0.4773760999960359,None,784868,001,2024-10-17_13h39.53.818,sequene learning,2024.1.5,None,2024-10-17 13h40.00.206054 +0530,
-150,z,23,0,92,0,,,,,225.8578624999791,,225.8436694999982,225.8578624999791,226.8579674999928,226.8579674999928,226.8579674999928,226.8579674999928,226.8579674999928,227.85759169998346,227.85759169998346,228.3748876999889,z,1,0.5146403999824543,None,784868,001,2024-10-17_13h39.53.818,sequene learning,2024.1.5,None,2024-10-17 13h40.00.206054 +0530,
-50,x,23,1,93,1,,,,,228.39137810000102,,228.37583819997963,228.39137810000102,229.39055039998493,229.39055039998493,229.39055039998493,229.39055039998493,229.39055039998493,230.39061549998587,230.39061549998587,230.70860419998644,x,1,0.30183660000329837,None,784868,001,2024-10-17_13h39.53.818,sequene learning,2024.1.5,None,2024-10-17 13h40.00.206054 +0530,
50,c,23,2,94,2,,,,,230.72356189999846,,230.70976619998692,230.72356189999846,231.72364979999838,231.72364979999838,231.72364979999838,231.72364979999838,231.72364979999838,232.7240208000003,232.7240208000003,232.77616639999906,c,1,0.04611659998772666,None,784868,001,2024-10-17_13h39.53.818,sequene learning,2024.1.5,None,2024-10-17 13h40.00.206054 +0530,
150,v,23,3,95,3,,,,,232.789993399987,,232.77931849999004,232.789993399987,233.789875699993,233.789875699993,233.789875699993,233.789875699993,233.789875699993,234.7896991999878,234.7896991999878,235.1420246999769,v,1,0.3412180999876,None,784868,001,2024-10-17_13h39.53.818,sequene learning,2024.1.5,None,2024-10-17 13h40.00.206054 +0530,
-150,z,24,0,96,0,,,,,235.15592689998448,,235.14364569997997,235.15592689998448,236.15574570000172,236.15574570000172,236.15574570000172,236.15574570000172,236.15574570000172,237.15552129998105,237.15552129998105,237.72490059997654,z,1,0.5664069000049494,None,784868,001,2024-10-17_13h39.53.818,sequene learning,2024.1.5,None,2024-10-17 13h40.00.206054 +0530,
-50,x,24,1,97,1,,,,,237.73914999997942,,237.72661669997615,237.73914999997942,238.73905350000132,238.73905350000132,238.73905350000132,238.73905350000132,238.73905350000132,239.73861339999712,239.73861339999712,240.07301459999871,x,1,0.3216434000059962,None,784868,001,2024-10-17_13h39.53.818,sequene learning,2024.1.5,None,2024-10-17 13h40.00.206054 +0530,
50,c,24,2,98,2,,,,,240.08841279998887,,240.07461729997885,240.08841279998887,241.08827599999495,241.08827599999495,241.08827599999495,241.08827599999495,241.08827599999495,242.0882877999975,242.0882877999975,242.6554010999971,c,1,0.5511469999910332,None,784868,001,2024-10-17_13h39.53.818,sequene learning,2024.1.5,None,2024-10-17 13h40.00.206054 +0530,
150,v,24,3,99,3,,,,,242.67122849999578,,242.65634970000247,242.67122849999578,243.67068599999766,243.67068599999766,243.67068599999766,243.67068599999766,243.67068599999766,244.67070029999013,244.67070029999013,245.09008559997892,v,1,0.4105406999879051,None,784868,001,2024-10-17_13h39.53.818,sequene learning,2024.1.5,None,2024-10-17 13h40.00.206054 +0530,
-150,z,25,0,100,0,,,,,245.10419309997815,,245.09176069998648,245.10419309997815,246.10366189997876,246.10366189997876,246.10366189997876,246.10366189997876,246.10366189997876,247.10375849998672,247.10375849998672,247.5885624999937,z,1,0.4705880000256002,None,784868,001,2024-10-17_13h39.53.818,sequene learning,2024.1.5,None,2024-10-17 13h40.00.206054 +0530,
-50,x,25,1,101,1,,,,,247.60355479997816,,247.5894597999868,247.60355479997816,248.60378330000094,248.60378330000094,248.60378330000094,248.60378330000094,248.60378330000094,249.60341049998533,249.60341049998533,249.97065529998508,x,1,0.3646178999915719,None,784868,001,2024-10-17_13h39.53.818,sequene learning,2024.1.5,None,2024-10-17 13h40.00.206054 +0530,
50,c,25,2,102,2,,,,,249.98629659999278,,249.97164269999485,249.98629659999278,250.9861324999947,250.9861324999947,250.9861324999947,250.9861324999947,250.9861324999947,251.9862926999922,251.9862926999922,252.3694542000012,c,1,0.3738485999929253,None,784868,001,2024-10-17_13h39.53.818,sequene learning,2024.1.5,None,2024-10-17 13h40.00.206054 +0530,
150,v,25,3,103,3,,,,,252.3855751999945,,252.3701000000001,252.3855751999945,253.36893889997737,253.36893889997737,253.36893889997737,253.36893889997737,253.38584719999926,254.38538490000064,254.38538490000064,254.71935780000058,v,1,0.31985460000578314,None,784868,001,2024-10-17_13h39.53.818,sequene learning,2024.1.5,None,2024-10-17 13h40.00.206054 +0530,
-150,z,26,0,104,0,,,,,254.73501879998366,,254.7202968999918,254.73501879998366,255.73501779997605,255.73501779997605,255.73501779997605,255.73501779997605,255.73501779997605,256.73499119997723,256.73499119997723,257.05483409998124,z,1,0.30890530001488514,None,784868,001,2024-10-17_13h39.53.818,sequene learning,2024.1.5,None,2024-10-17 13h40.00.206054 +0530,
-50,x,26,1,105,1,,,,,257.0680540999747,,257.05676389997825,257.0680540999747,258.0695981000026,258.0695981000026,258.0695981000026,258.0695981000026,258.0695981000026,259.0680503999756,259.0680503999756,259.4528311000031,x,1,0.37150839998503216,None,784868,001,2024-10-17_13h39.53.818,sequene learning,2024.1.5,None,2024-10-17 13h40.00.206054 +0530,
50,c,26,2,106,2,,,,,259.4675360999827,,259.4542504999845,259.4675360999827,260.4675743999833,260.4675743999833,260.4675743999833,260.4675743999833,260.4675743999833,261.4671530999767,261.4671530999767,261.9724750999885,c,1,0.4873150000057649,None,784868,001,2024-10-17_13h39.53.818,sequene learning,2024.1.5,None,2024-10-17 13h40.00.206054 +0530,
150,v,26,3,107,3,,,,,261.9838342999865,,261.9731482999923,261.9838342999865,262.9837059999991,262.9837059999991,262.9837059999991,262.9837059999991,262.9837059999991,263.98355649999576,263.98355649999576,264.3190164999978,v,1,0.32134019999648444,None,784868,001,2024-10-17_13h39.53.818,sequene learning,2024.1.5,None,2024-10-17 13h40.00.206054 +0530,
-150,z,27,0,108,0,,,,,264.33330299999216,,264.320472899999,264.33330299999216,265.3330661999935,265.3330661999935,265.3330661999935,265.3330661999935,265.3330661999935,266.3324963999912,266.3324963999912,266.73392879997846,z,1,0.39228619998903014,None,784868,001,2024-10-17_13h39.53.818,sequene learning,2024.1.5,None,2024-10-17 13h40.00.206054 +0530,
-50,x,27,1,109,1,,,,,266.7492196999956,,266.734910500003,266.7492196999956,267.7490861999977,267.7490861999977,267.7490861999977,267.7490861999977,267.7490861999977,268.74886559997685,268.74886559997685,269.1332318999921,x,1,0.3752122000150848,None,784868,001,2024-10-17_13h39.53.818,sequene learning,2024.1.5,None,2024-10-17 13h40.00.206054 +0530,
50,c,27,2,110,2,,,,,269.1488092999789,,269.1342533999996,269.1488092999789,270.1491868000012,270.1491868000012,270.1491868000012,270.1491868000012,270.1491868000012,271.14846479997505,271.14846479997505,271.44948589999694,c,1,0.2906774000148289,None,784868,001,2024-10-17_13h39.53.818,sequene learning,2024.1.5,None,2024-10-17 13h40.00.206054 +0530,
150,v,27,3,111,3,,,,,271.4648548999976,,271.4505055999907,271.4648548999976,272.4646530000027,272.4646530000027,272.4646530000027,272.4646530000027,272.4646530000027,273.46441129999585,273.46441129999585,273.8325960999937,v,1,0.3559157999989111,None,784868,001,2024-10-17_13h39.53.818,sequene learning,2024.1.5,None,2024-10-17 13h40.00.206054 +0530,
-150,z,28,0,112,0,,,,,273.8477725999837,,273.83377469997504,273.8477725999837,274.84811229998013,274.84811229998013,274.84811229998013,274.84811229998013,274.84811229998013,275.8474576000008,275.8474576000008,276.2818075999967,z,1,0.42461349998484366,None,784868,001,2024-10-17_13h39.53.818,sequene learning,2024.1.5,None,2024-10-17 13h40.00.206054 +0530,
-50,x,28,1,113,1,,,,,276.2985972999886,,276.2825376999972,276.2985972999886,277.2973510999873,277.2973510999873,277.2973510999873,277.2973510999873,277.3137094999838,278.2973921999801,278.2973921999801,279.1145686999953,x,1,0.8153534999873955,None,784868,001,2024-10-17_13h39.53.818,sequene learning,2024.1.5,None,2024-10-17 13h40.00.206054 +0530,
50,c,28,2,114,2,,,,,279.12990819997503,,279.11551750000217,279.12990819997503,280.12993559997994,280.12993559997994,280.12993559997994,280.12993559997994,280.12993559997994,281.12975009999354,281.12975009999354,281.5971997999877,c,1,0.46522359998198226,None,784868,001,2024-10-17_13h39.53.818,sequene learning,2024.1.5,None,2024-10-17 13h40.00.206054 +0530,
150,v,28,3,115,3,,,,,281.6126731999975,,281.5982049999875,281.6126731999975,282.61292799998773,282.61292799998773,282.61292799998773,282.61292799998773,282.61292799998773,283.6123888999864,283.6123888999864,284.03120489997673,v,1,0.4048322000016924,None,784868,001,2024-10-17_13h39.53.818,sequene learning,2024.1.5,None,2024-10-17 13h40.00.206054 +0530,
-150,z,29,0,116,0,,,,,284.0459482999868,,284.0326781999902,284.0459482999868,285.0456260999781,285.0456260999781,285.0456260999781,285.0456260999781,285.0456260999781,286.0452014999755,286.0452014999755,286.6132067999861,z,1,0.5591858999978285,None,784868,001,2024-10-17_13h39.53.818,sequene learning,2024.1.5,None,2024-10-17 13h40.00.206054 +0530,
-50,x,29,1,117,1,,,,,286.6284669000015,,286.6145137999847,286.6284669000015,287.62834049999947,287.62834049999947,287.62834049999947,287.62834049999947,287.62834049999947,288.6280221999914,288.6280221999914,289.1145720999921,x,1,0.4753010999993421,None,784868,001,2024-10-17_13h39.53.818,sequene learning,2024.1.5,None,2024-10-17 13h40.00.206054 +0530,
50,c,29,2,118,2,,,,,289.1278138999769,,289.1163287999807,289.1278138999769,290.1277644999791,290.1277644999791,290.1277644999791,290.1277644999791,290.1277644999791,291.12738530000206,291.12738530000206,291.42868429998634,c,1,0.2924683000019286,None,784868,001,2024-10-17_13h39.53.818,sequene learning,2024.1.5,None,2024-10-17 13h40.00.206054 +0530,
150,v,29,3,119,3,,,,,291.4440032999846,,291.4296067999967,291.4440032999846,292.4438006999844,292.4438006999844,292.4438006999844,292.4438006999844,292.4438006999844,293.4435634999827,293.4435634999827,293.81170749999,v,1,0.3638083999976516,None,784868,001,2024-10-17_13h39.53.818,sequene learning,2024.1.5,None,2024-10-17 13h40.00.206054 +0530,
-150,z,30,0,120,0,,,,,293.8269713999762,,293.8131927999784,293.8269713999762,294.8267237999826,294.8267237999826,294.8267237999826,294.8267237999826,294.8267237999826,295.8265135999827,295.8265135999827,296.1608765999845,z,1,0.31958579999627545,None,784868,001,2024-10-17_13h39.53.818,sequene learning,2024.1.5,None,2024-10-17 13h40.00.206054 +0530,
-50,x,30,1,121,1,,,,,296.17685099999653,,296.1622638999834,296.17685099999653,297.17651279998245,297.17651279998245,297.17651279998245,297.17651279998245,297.17651279998245,298.17573899999843,298.17573899999843,298.5099823999917,x,1,0.3262211999972351,None,784868,001,2024-10-17_13h39.53.818,sequene learning,2024.1.5,None,2024-10-17 13h40.00.206054 +0530,
50,c,30,2,122,2,,,,,298.5259758999746,,298.5108757999842,298.5259758999746,299.5258494000009,299.5258494000009,299.5258494000009,299.5258494000009,299.5258494000009,300.52669709999464,300.52669709999464,302.0261739999987,c,1,1.4943999999959487,None,784868,001,2024-10-17_13h39.53.818,sequene learning,2024.1.5,None,2024-10-17 13h40.00.206054 +0530,
150,v,30,3,123,3,,,,,302.04197019999265,,302.0271339000028,302.04197019999265,303.04158359998837,303.04158359998837,303.04158359998837,303.04158359998837,303.04158359998837,304.0412955999782,304.0412955999782,304.45943729998544,v,1,0.40265780000481755,None,784868,001,2024-10-17_13h39.53.818,sequene learning,2024.1.5,None,2024-10-17 13h40.00.206054 +0530,
-150,z,31,0,124,0,,,,,304.47465999997803,,304.4608081999759,304.47465999997803,305.47434249997605,305.47434249997605,305.47434249997605,305.47434249997605,305.47434249997605,306.4741728999943,306.4741728999943,306.99220989999594,z,1,0.5030971000087447,None,784868,001,2024-10-17_13h39.53.818,sequene learning,2024.1.5,None,2024-10-17 13h40.00.206054 +0530,
-50,x,31,1,125,1,,,,,307.0071355999971,,306.9931894999754,307.0071355999971,308.0070685999817,308.0070685999817,308.0070685999817,308.0070685999817,308.0070685999817,309.00705949999974,309.00705949999974,309.3429442999768,x,1,0.33183519999147393,None,784868,001,2024-10-17_13h39.53.818,sequene learning,2024.1.5,None,2024-10-17 13h40.00.206054 +0530,
50,c,31,2,126,2,,,,,309.35707969998475,,309.34468229999766,309.35707969998475,310.3565369999851,310.3565369999851,310.3565369999851,310.3565369999851,310.3565369999851,311.3563379999832,311.3563379999832,311.7070074999938,c,1,0.3471617999894079,None,784868,001,2024-10-17_13h39.53.818,sequene learning,2024.1.5,None,2024-10-17 13h40.00.206054 +0530,
150,v,31,3,127,3,,,,,311.72308219998376,,311.70787409998593,311.72308219998376,312.72286829998484,312.72286829998484,312.72286829998484,312.72286829998484,312.72286829998484,313.72397379999165,313.72397379999165,314.141069699981,v,1,0.4005270999914501,None,784868,001,2024-10-17_13h39.53.818,sequene learning,2024.1.5,None,2024-10-17 13h40.00.206054 +0530,
-150,z,32,0,128,0,,,,,314.1556191999989,,314.14207869998063,314.1556191999989,315.15570339999977,315.15570339999977,315.15570339999977,315.15570339999977,315.15570339999977,316.1554427999945,316.1554427999945,316.7069442999782,z,1,0.5455415999749675,None,784868,001,2024-10-17_13h39.53.818,sequene learning,2024.1.5,None,2024-10-17 13h40.00.206054 +0530,
-50,x,32,1,129,1,,,,,316.721950999985,,316.7090939999907,316.721950999985,317.7224569999962,317.7224569999962,317.7224569999962,317.7224569999962,317.7224569999962,318.7223127000034,318.7223127000034,319.2070959999983,x,1,0.4737948999973014,None,784868,001,2024-10-17_13h39.53.818,sequene learning,2024.1.5,None,2024-10-17 13h40.00.206054 +0530,
50,c,32,2,130,2,,,,,319.22145359998103,,319.2085959999822,319.22145359998103,320.22122019997914,320.22122019997914,320.22122019997914,320.22122019997914,320.22122019997914,321.221238099999,321.221238099999,321.65552209998714,c,1,0.42224019998684525,None,784868,001,2024-10-17_13h39.53.818,sequene learning,2024.1.5,None,2024-10-17 13h40.00.206054 +0530,
150,v,32,3,131,3,,,,,321.6711332999985,,321.656530999986,321.6711332999985,322.67083969997475,322.67083969997475,322.67083969997475,322.67083969997475,322.67083969997475,323.6711766999797,323.6711766999797,324.1057176999748,v,1,0.4208982000127435,None,784868,001,2024-10-17_13h39.53.818,sequene learning,2024.1.5,None,2024-10-17 13h40.00.206054 +0530,
-150,z,33,0,132,0,,,,,324.1210419999843,,324.1072795999935,324.1210419999843,325.12016219997895,325.12016219997895,325.12016219997895,325.12016219997895,325.12016219997895,326.1200207999791,326.1200207999791,326.7393774999946,z,1,0.6103348000033293,None,784868,001,2024-10-17_13h39.53.818,sequene learning,2024.1.5,None,2024-10-17 13h40.00.206054 +0530,
-50,x,33,1,133,1,,,,,326.753077100002,,326.7409183999989,326.753077100002,327.753194799996,327.753194799996,327.753194799996,327.753194799996,327.753194799996,328.7527957999846,328.7527957999846,329.3720501999778,x,1,0.6033990000141785,None,784868,001,2024-10-17_13h39.53.818,sequene learning,2024.1.5,None,2024-10-17 13h40.00.206054 +0530,
50,c,33,2,134,2,,,,,329.3860139999888,,329.3737151999958,329.3860139999888,330.3856899999955,330.3856899999955,330.3856899999955,330.3856899999955,330.3856899999955,331.38555619999534,331.38555619999534,331.87144580000313,c,1,0.4818821999942884,None,784868,001,2024-10-17_13h39.53.818,sequene learning,2024.1.5,None,2024-10-17 13h40.00.206054 +0530,
150,v,33,3,135,3,,,,,331.8855762000021,,331.8732625999837,331.8855762000021,332.88564459999907,332.88564459999907,332.88564459999907,332.88564459999907,332.88564459999907,333.88516009997693,333.88516009997693,334.48653759999434,v,1,0.5924765999952797,None,784868,001,2024-10-17_13h39.53.818,sequene learning,2024.1.5,None,2024-10-17 13h40.00.206054 +0530,
-150,z,34,0,136,0,,,,,334.5014061999973,,334.4878291999921,334.5014061999973,335.50108129999717,335.50108129999717,335.50108129999717,335.50108129999717,335.50108129999717,336.5009028999775,336.5009028999775,337.58537639997667,z,1,1.0699690000037663,None,784868,001,2024-10-17_13h39.53.818,sequene learning,2024.1.5,None,2024-10-17 13h40.00.206054 +0530,
-50,x,34,1,137,1,,,,,337.60090309998486,,337.58676969999215,337.60090309998486,338.60104359997786,338.60104359997786,338.60104359997786,338.60104359997786,338.60104359997786,339.6007180000015,339.6007180000015,340.1522319999931,x,1,0.5413812000188045,None,784868,001,2024-10-17_13h39.53.818,sequene learning,2024.1.5,None,2024-10-17 13h40.00.206054 +0530,
50,c,34,2,138,2,,,,,340.1672535999969,,340.1534768999845,340.1672535999969,341.16672599999583,341.16672599999583,341.16672599999583,341.16672599999583,341.16672599999583,342.16736839999794,342.16736839999794,342.65119229999254,c,1,0.4810317999799736,None,784868,001,2024-10-17_13h39.53.818,sequene learning,2024.1.5,None,2024-10-17 13h40.00.206054 +0530,
150,v,34,3,139,3,,,,,342.66674610000337,,342.65265149998595,342.66674610000337,343.66677229999914,343.66677229999914,343.66677229999914,343.66677229999914,343.66677229999914,344.66663409999455,344.66663409999455,344.9684850999911,v,1,0.29602939999313094,None,784868,001,2024-10-17_13h39.53.818,sequene learning,2024.1.5,None,2024-10-17 13h40.00.206054 +0530,
-150,z,35,0,140,0,,,,,344.9827548999747,,344.96984189999057,344.9827548999747,345.98290889998316,345.98290889998316,345.98290889998316,345.98290889998316,345.98290889998316,346.9824754000001,346.9824754000001,347.4678373999777,z,1,0.47564359998796135,None,784868,001,2024-10-17_13h39.53.818,sequene learning,2024.1.5,None,2024-10-17 13h40.00.206054 +0530,
-50,x,35,1,141,1,,,,,347.48177729998133,,347.46944200000144,347.48177729998133,348.48256869998295,348.48256869998295,348.48256869998295,348.48256869998295,348.48256869998295,349.4822373999923,349.4822373999923,350.0823866999999,x,1,0.5969218999962322,None,784868,001,2024-10-17_13h39.53.818,sequene learning,2024.1.5,None,2024-10-17 13h40.00.206054 +0530,
50,c,35,2,142,2,,,,,350.09882869999274,,350.08453709998867,350.09882869999274,351.09830839998904,351.09830839998904,351.09830839998904,351.09830839998904,351.09830839998904,352.097580200003,352.097580200003,352.70077669998864,c,1,0.6000200000125915,None,784868,001,2024-10-17_13h39.53.818,sequene learning,2024.1.5,None,2024-10-17 13h40.00.206054 +0530,
150,v,35,3,143,3,,,,,352.71467829999165,,352.7020915999892,352.71467829999165,353.71475590000045,353.71475590000045,353.71475590000045,353.71475590000045,353.71475590000045,354.7138608999958,354.7138608999958,355.0484652000014,v,1,0.3327796000230592,None,784868,001,2024-10-17_13h39.53.818,sequene learning,2024.1.5,None,2024-10-17 13h40.00.206054 +0530,
-150,z,36,0,144,0,,,,,355.06362969998736,,355.0491965999827,355.06362969998736,356.04681790000177,356.04681790000177,356.04681790000177,356.04681790000177,356.0636703999771,357.0635377999861,357.0635377999861,357.56571090000216,z,1,0.4918009999964852,None,784868,001,2024-10-17_13h39.53.818,sequene learning,2024.1.5,None,2024-10-17 13h40.00.206054 +0530,
-50,x,36,1,145,1,,,,,357.58005369998864,,357.56731759998365,357.58005369998864,358.58014969999203,358.58014969999203,358.58014969999203,358.58014969999203,358.58014969999203,359.57955359999323,359.57955359999323,360.09794739997596,x,1,0.5080951999989338,None,784868,001,2024-10-17_13h39.53.818,sequene learning,2024.1.5,None,2024-10-17 13h40.00.206054 +0530,
50,c,36,2,146,2,,,,,360.11282029998256,,360.09923409999465,360.11282029998256,361.1127456999966,361.1127456999966,361.1127456999966,361.1127456999966,361.1127456999966,362.11244519997854,362.11244519997854,362.4305220999813,c,1,0.30662749998737127,None,784868,001,2024-10-17_13h39.53.818,sequene learning,2024.1.5,None,2024-10-17 13h40.00.206054 +0530,
150,v,36,3,147,3,,,,,362.445447999984,,362.43180629998096,362.445447999984,363.44532659999095,363.44532659999095,363.44532659999095,363.44532659999095,363.44532659999095,364.4455856999848,364.4455856999848,364.7628480999847,v,1,0.3074229000194464,None,784868,001,2024-10-17_13h39.53.818,sequene learning,2024.1.5,None,2024-10-17 13h40.00.206054 +0530,
-150,z,37,0,148,0,,,,,364.7782316999801,,364.76378249999834,364.7782316999801,365.7784182000032,365.7784182000032,365.7784182000032,365.7784182000032,365.7784182000032,366.77843079998274,366.77843079998274,367.1450181999826,z,1,0.3594588999985717,None,784868,001,2024-10-17_13h39.53.818,sequene learning,2024.1.5,None,2024-10-17 13h40.00.206054 +0530,
-50,x,37,1,149,1,,,,,367.1618373999954,,367.14581849999377,367.1618373999954,368.14408820000244,368.14408820000244,368.14408820000244,368.14408820000244,368.17758190000313,369.1610244999756,369.1610244999756,369.5631237999769,x,1,0.3859393999737222,None,784868,001,2024-10-17_13h39.53.818,sequene learning,2024.1.5,None,2024-10-17 13h40.00.206054 +0530,
50,c,37,2,150,2,,,,,369.5776768999931,,369.564378399984,369.5776768999931,370.5775086999929,370.5775086999929,370.5775086999929,370.5775086999929,370.5775086999929,371.5773236999812,371.5773236999812,371.9281757999852,c,1,0.33389370000804774,None,784868,001,2024-10-17_13h39.53.818,sequene learning,2024.1.5,None,2024-10-17 13h40.00.206054 +0530,
150,v,37,3,151,3,,,,,371.94338719997904,,371.9289679999929,371.94338719997904,372.94337939997786,372.94337939997786,372.94337939997786,372.94337939997786,372.94337939997786,373.9432053999917,373.9432053999917,374.27914619998774,v,1,0.323157100006938,None,784868,001,2024-10-17_13h39.53.818,sequene learning,2024.1.5,None,2024-10-17 13h40.00.206054 +0530,
-150,z,38,0,152,0,,,,,374.2930840999761,,374.281550899992,374.2930840999761,375.2932137000025,375.2932137000025,375.2932137000025,375.2932137000025,375.2932137000025,376.2929973999853,376.2929973999853,376.6444574999914,z,1,0.3420193000056315,None,784868,001,2024-10-17_13h39.53.818,sequene learning,2024.1.5,None,2024-10-17 13h40.00.206054 +0530,
-50,x,38,1,153,1,,,,,376.65891969998484,,376.6457436999772,376.65891969998484,377.6598416999914,377.6598416999914,377.6598416999914,377.6598416999914,377.6598416999914,378.6590079999878,378.6590079999878,379.17805269997916,x,1,0.5060851000016555,None,784868,001,2024-10-17_13h39.53.818,sequene learning,2024.1.5,None,2024-10-17 13h40.00.206054 +0530,
50,c,38,2,154,2,,,,,379.19229149998864,,379.17982499999925,379.19229149998864,380.19218149999506,380.19218149999506,380.19218149999506,380.19218149999506,380.19218149999506,381.1917327999836,381.1917327999836,381.427248299995,c,1,0.22762590000638738,None,784868,001,2024-10-17_13h39.53.818,sequene learning,2024.1.5,None,2024-10-17 13h40.00.206054 +0530,
150,v,38,3,155,3,,,,,381.4415295999788,,381.428737499984,381.4415295999788,382.4416755999846,382.4416755999846,382.4416755999846,382.4416755999846,382.4416755999846,383.44134709998616,383.44134709998616,383.74252239998896,v,1,0.2872170000046026,None,784868,001,2024-10-17_13h39.53.818,sequene learning,2024.1.5,None,2024-10-17 13h40.00.206054 +0530,
-150,z,39,0,156,0,,,,,383.7581680000003,,383.7434357999882,383.7581680000003,384.757617700001,384.757617700001,384.757617700001,384.757617700001,384.757617700001,385.75754659998347,385.75754659998347,386.24143759999424,z,1,0.46766049999860115,None,784868,001,2024-10-17_13h39.53.818,sequene learning,2024.1.5,None,2024-10-17 13h40.00.206054 +0530,
-50,x,39,1,157,1,,,,,386.2571487999812,,386.242668699997,386.2571487999812,387.25740819997736,387.25740819997736,387.25740819997736,387.25740819997736,387.25740819997736,388.2572253999824,388.2572253999824,388.6582468999841,x,1,0.38615500001469627,None,784868,001,2024-10-17_13h39.53.818,sequene learning,2024.1.5,None,2024-10-17 13h40.00.206054 +0530,
50,c,39,2,158,2,,,,,388.67340259999037,,388.6596056999988,388.67340259999037,389.6733109999914,389.6733109999914,389.6733109999914,389.6733109999914,389.6733109999914,390.673037999979,390.673037999979,390.9749332999927,c,1,0.2992960999836214,None,784868,001,2024-10-17_13h39.53.818,sequene learning,2024.1.5,None,2024-10-17 13h40.00.206054 +0530,
150,v,39,3,159,3,,,,,390.98967149999226,,390.976188599976,390.98967149999226,391.98888829999487,391.98888829999487,391.98888829999487,391.98888829999487,391.98888829999487,392.9888574999932,392.9888574999932,393.37455639999826,v,1,0.37465129999327473,None,784868,001,2024-10-17_13h39.53.818,sequene learning,2024.1.5,None,2024-10-17 13h40.00.206054 +0530,
-150,z,40,0,160,0,,,,,393.38922079998883,,393.37560349999694,393.38922079998883,394.38862489999156,394.38862489999156,394.38862489999156,394.38862489999156,394.38862489999156,395.3886084999831,395.3886084999831,395.8080033999868,z,1,0.4054891999985557,None,784868,001,2024-10-17_13h39.53.818,sequene learning,2024.1.5,None,2024-10-17 13h40.00.206054 +0530,
-50,x,40,1,161,1,,,,,395.8217088999809,,395.8096775999875,395.8217088999809,396.82184509999934,396.82184509999934,396.82184509999934,396.82184509999934,396.82184509999934,397.8215455999889,397.8215455999889,398.15578489998006,x,1,0.32323450001422316,None,784868,001,2024-10-17_13h39.53.818,sequene learning,2024.1.5,None,2024-10-17 13h40.00.206054 +0530,
50,c,40,2,162,2,,,,,398.17170149998856,,398.1566665999999,398.17170149998856,399.17112399998587,399.17112399998587,399.17112399998587,399.17112399998587,399.17112399998587,400.17119130000356,400.17119130000356,400.28995189999114,c,1,0.11509559999103658,None,784868,001,2024-10-17_13h39.53.818,sequene learning,2024.1.5,None,2024-10-17 13h40.00.206054 +0530,
150,v,40,3,163,3,,,,,400.30444029998034,,400.29176480000024,400.30444029998034,401.3044587999757,401.3044587999757,401.3044587999757,401.3044587999757,401.3044587999757,402.30379789997824,402.30379789997824,402.60572839999804,v,1,0.2848272999981418,None,784868,001,2024-10-17_13h39.53.818,sequene learning,2024.1.5,None,2024-10-17 13h40.00.206054 +0530,
-150,z,41,0,164,0,,,,,402.6208546999842,,402.6070758999849,402.6208546999842,403.6203217000002,403.6203217000002,403.6203217000002,403.6203217000002,403.6203217000002,404.6199108999863,404.6199108999863,404.9563906999829,z,1,0.318374299997231,None,784868,001,2024-10-17_13h39.53.818,sequene learning,2024.1.5,None,2024-10-17 13h40.00.206054 +0530,
-50,x,41,1,165,1,,,,,404.969778699975,,404.9610231999832,404.969778699975,405.96976979999454,405.96976979999454,405.96976979999454,405.96976979999454,405.96976979999454,406.96943679999094,406.96943679999094,407.32033439999213,x,1,0.33997919998364523,None,784868,001,2024-10-17_13h39.53.818,sequene learning,2024.1.5,None,2024-10-17 13h40.00.206054 +0530,
50,c,41,2,166,2,,,,,407.3356937999779,,407.3221219999832,407.3356937999779,408.3355749999755,408.3355749999755,408.3355749999755,408.3355749999755,408.3355749999755,409.3356953999901,409.3356953999901,409.6527744999912,c,1,0.31559850001940504,None,784868,001,2024-10-17_13h39.53.818,sequene learning,2024.1.5,None,2024-10-17 13h40.00.206054 +0530,
150,v,41,3,167,3,,,,,409.6688230999862,,409.6533778999874,409.6688230999862,410.6691714999906,410.6691714999906,410.6691714999906,410.6691714999906,410.6691714999906,411.6682763999852,411.6682763999852,412.0035784999782,v,1,0.318134100001771,None,784868,001,2024-10-17_13h39.53.818,sequene learning,2024.1.5,None,2024-10-17 13h40.00.206054 +0530,
-150,z,42,0,168,0,,,,,412.0186437999946,,412.0049051999813,412.0186437999946,413.0184178999916,413.0184178999916,413.0184178999916,413.0184178999916,413.0184178999916,414.0183199000021,414.0183199000021,414.4374249999819,z,1,0.4127908000082243,None,784868,001,2024-10-17_13h39.53.818,sequene learning,2024.1.5,None,2024-10-17 13h40.00.206054 +0530,
-50,x,42,1,169,1,,,,,414.4512354999897,,414.4390088999935,414.4512354999897,415.45107650000136,415.45107650000136,415.45107650000136,415.45107650000136,415.45107650000136,416.45566609999514,416.45566609999514,417.0695412999776,x,1,0.600477600004524,None,784868,001,2024-10-17_13h39.53.818,sequene learning,2024.1.5,None,2024-10-17 13h40.00.206054 +0530,
50,c,42,2,170,2,,,,,417.08405439998023,,417.07089159998577,417.08405439998023,418.08369639999,418.08369639999,418.08369639999,418.08369639999,418.08369639999,419.0836728999857,419.0836728999857,419.6512228999927,c,1,0.5565669999923557,None,784868,001,2024-10-17_13h39.53.818,sequene learning,2024.1.5,None,2024-10-17 13h40.00.206054 +0530,
150,v,42,3,171,3,,,,,419.6670717999805,,419.65174079997814,419.6670717999805,420.6666854999785,420.6666854999785,420.6666854999785,420.6666854999785,420.6666854999785,421.6664430999954,421.6664430999954,422.0011993999942,v,1,0.32057939999504015,None,784868,001,2024-10-17_13h39.53.818,sequene learning,2024.1.5,None,2024-10-17 13h40.00.206054 +0530,
-150,z,43,0,172,0,,,,,422.0161607999762,,422.0030211999838,422.0161607999762,423.0161062999978,423.0161062999978,423.0161062999978,423.0161062999978,423.0161062999978,424.0155858999933,424.0155858999933,424.3332456999924,z,1,0.3052142999949865,None,784868,001,2024-10-17_13h39.53.818,sequene learning,2024.1.5,None,2024-10-17 13h40.00.206054 +0530,
-50,x,43,1,173,1,,,,,424.3489982000028,,424.3351599999878,424.3489982000028,425.3488039999793,425.3488039999793,425.3488039999793,425.3488039999793,425.3488039999793,426.3493063999922,426.3493063999922,426.8337743000011,x,1,0.47856859999592416,None,784868,001,2024-10-17_13h39.53.818,sequene learning,2024.1.5,None,2024-10-17 13h40.00.206054 +0530,
50,c,43,2,174,2,,,,,426.8488269999798,,426.8354311999865,426.8488269999798,427.84857309999643,427.84857309999643,427.84857309999643,427.84857309999643,427.84857309999643,428.84855490000336,428.84855490000336,429.24869359997683,c,1,0.39169670001138,None,784868,001,2024-10-17_13h39.53.818,sequene learning,2024.1.5,None,2024-10-17 13h40.00.206054 +0530,
150,v,43,3,175,3,,,,,429.26457389999996,,429.2495010999846,429.26457389999996,430.2647287999862,430.2647287999862,430.2647287999862,430.2647287999862,430.2647287999862,431.26469969999744,431.26469969999744,431.49944459999097,v,1,0.21788260000175796,None,784868,001,2024-10-17_13h39.53.818,sequene learning,2024.1.5,None,2024-10-17 13h40.00.206054 +0530,
-150,z,44,0,176,0,,,,,431.51455629998236,,431.5010578999936,431.51455629998236,432.5140335999895,432.5140335999895,432.5140335999895,432.5140335999895,432.5140335999895,433.5138987999817,433.5138987999817,433.99807239999063,z,1,0.47817529999883845,None,784868,001,2024-10-17_13h39.53.818,sequene learning,2024.1.5,None,2024-10-17 13h40.00.206054 +0530,
-50,x,44,1,177,1,,,,,434.0138514999999,,433.9990245999943,434.0138514999999,435.01417129999027,435.01417129999027,435.01417129999027,435.01417129999027,435.01417129999027,436.0135250999883,436.0135250999883,436.5641907999816,x,1,0.5429984999937005,None,784868,001,2024-10-17_13h39.53.818,sequene learning,2024.1.5,None,2024-10-17 13h40.00.206054 +0530,
50,c,44,2,178,2,,,,,436.579585999978,,436.5653335999814,436.579585999978,437.57957429997623,437.57957429997623,437.57957429997623,437.57957429997623,437.57957429997623,438.57960499997716,438.57960499997716,439.41430689999834,c,1,0.8317556999973021,None,784868,001,2024-10-17_13h39.53.818,sequene learning,2024.1.5,None,2024-10-17 13h40.00.206054 +0530,
150,v,44,3,179,3,,,,,439.4288334999874,,439.41572289998294,439.4288334999874,440.42910290000145,440.42910290000145,440.42910290000145,440.42910290000145,440.42910290000145,441.4287986999843,441.4287986999843,442.0459642999922,v,1,0.6146755000227131,None,784868,001,2024-10-17_13h39.53.818,sequene learning,2024.1.5,None,2024-10-17 13h40.00.206054 +0530,
-150,z,45,0,180,0,,,,,442.0617105999845,,442.04679049999686,442.0617105999845,443.061970699986,443.061970699986,443.061970699986,443.061970699986,443.061970699986,444.06170189997647,444.06170189997647,444.5476113999903,z,1,0.4750636999960989,None,784868,001,2024-10-17_13h39.53.818,sequene learning,2024.1.5,None,2024-10-17 13h40.00.206054 +0530,
-50,x,45,1,181,1,,,,,444.5623216999811,,444.54907280000043,444.5623216999811,445.56109649999416,445.56109649999416,445.56109649999416,445.56109649999416,445.56109649999416,446.56128819999867,446.56128819999867,447.1959741000028,x,1,0.623267399991164,None,784868,001,2024-10-17_13h39.53.818,sequene learning,2024.1.5,None,2024-10-17 13h40.00.206054 +0530,
50,c,45,2,182,2,,,,,447.2118942999805,,447.19718269997975,447.2118942999805,448.21091669998714,448.21091669998714,448.21091669998714,448.21091669998714,448.21091669998714,449.2106416999886,449.2106416999886,449.86212819998036,c,1,0.6441482999944128,None,784868,001,2024-10-17_13h39.53.818,sequene learning,2024.1.5,None,2024-10-17 13h40.00.206054 +0530,
150,v,45,3,183,3,,,,,449.8774443999864,,449.86369069997454,449.8774443999864,450.87692069998593,450.87692069998593,450.87692069998593,450.87692069998593,450.87692069998593,451.876554699993,451.876554699993,452.24426179999136,v,1,0.3623072999762371,None,784868,001,2024-10-17_13h39.53.818,sequene learning,2024.1.5,None,2024-10-17 13h40.00.206054 +0530,
-150,z,46,0,184,0,,,,,452.2597773000016,,452.2453226999787,452.2597773000016,453.2597084000008,453.2597084000008,453.2597084000008,453.2597084000008,453.2597084000008,454.2594436999934,454.2594436999934,454.5772915999987,z,1,0.31084660001215525,None,784868,001,2024-10-17_13h39.53.818,sequene learning,2024.1.5,None,2024-10-17 13h40.00.206054 +0530,
-50,x,46,1,185,1,,,,,454.59270439998363,,454.57833489999757,454.59270439998363,455.5926707999897,455.5926707999897,455.5926707999897,455.5926707999897,455.5926707999897,456.59263629998895,456.59263629998895,457.0265649999783,x,1,0.431152299977839,None,784868,001,2024-10-17_13h39.53.818,sequene learning,2024.1.5,None,2024-10-17 13h40.00.206054 +0530,
50,c,46,2,186,2,,,,,457.0420171000005,,457.0284197999863,457.0420171000005,458.04220619998523,458.04220619998523,458.04220619998523,458.04220619998523,458.04220619998523,459.0419130999944,459.0419130999944,459.16112429997884,c,1,None,None,784868,001,2024-10-17_13h39.53.818,sequene learning,2024.1.5,None,2024-10-17 13h40.00.206054 +0530,
150,v,46,3,187,3,,,,,459.17491309999605,,459.1629105999891,459.17491309999605,460.1746640999918,460.1746640999918,460.1746640999918,460.1746640999918,460.1746640999918,461.1744414999848,461.1744414999848,461.6261230999953,v,1,0.4491128999798093,None,784868,001,2024-10-17_13h39.53.818,sequene learning,2024.1.5,None,2024-10-17 13h40.00.206054 +0530,
-150,z,47,0,188,0,,,,,461.6411212999956,,461.6270500999817,461.6411212999956,462.64144690000103,462.64144690000103,462.64144690000103,462.64144690000103,462.64144690000103,463.6406564999779,463.6406564999779,464.0930299999891,z,1,0.44462320001912303,None,784868,001,2024-10-17_13h39.53.818,sequene learning,2024.1.5,None,2024-10-17 13h40.00.206054 +0530,
-50,x,47,1,189,1,,,,,464.1079077999748,,464.0945025999972,464.1079077999748,465.1076396999997,465.1076396999997,465.1076396999997,465.1076396999997,465.1076396999997,466.1068855999911,466.1068855999911,466.44306379999034,x,1,0.3289660000009462,None,784868,001,2024-10-17_13h39.53.818,sequene learning,2024.1.5,None,2024-10-17 13h40.00.206054 +0530,
50,c,47,2,190,2,,,,,466.4572708999913,,466.445003300003,466.4572708999913,467.4571662999806,467.4571662999806,467.4571662999806,467.4571662999806,467.4571662999806,468.45641719998093,468.45641719998093,468.87414839997655,c,1,0.41222470000502653,None,784868,001,2024-10-17_13h39.53.818,sequene learning,2024.1.5,None,2024-10-17 13h40.00.206054 +0530,
150,v,47,3,191,3,,,,,468.8894285999995,,468.87510229999316,468.8894285999995,469.8898094999895,469.8898094999895,469.8898094999895,469.8898094999895,469.8898094999895,470.8897769000032,470.8897769000032,471.223330799985,v,1,0.31805239999084733,None,784868,001,2024-10-17_13h39.53.818,sequene learning,2024.1.5,None,2024-10-17 13h40.00.206054 +0530,
-150,z,48,0,192,0,,,,,471.23909149999963,,471.22419219999574,471.23909149999963,472.23941869998816,472.23941869998816,472.23941869998816,472.23941869998816,472.23941869998816,473.23889889998827,473.23889889998827,473.5410237000033,z,1,0.28666209999937564,None,784868,001,2024-10-17_13h39.53.818,sequene learning,2024.1.5,None,2024-10-17 13h40.00.206054 +0530,
-50,x,48,1,193,1,,,,,473.55559289999655,,473.5425616999855,473.55559289999655,474.55532129999483,474.55532129999483,474.55532129999483,474.55532129999483,474.55532129999483,475.5551125999773,475.5551125999773,475.8904314999818,x,1,0.32320320000872016,None,784868,001,2024-10-17_13h39.53.818,sequene learning,2024.1.5,None,2024-10-17 13h40.00.206054 +0530,
50,c,48,2,194,2,,,,,475.90522739998414,,475.89193479999085,475.90522739998414,476.90489259999595,476.90489259999595,476.90489259999595,476.90489259999595,476.90489259999595,477.9047180999769,477.9047180999769,478.22282199998153,c,1,0.31497439998202026,None,784868,001,2024-10-17_13h39.53.818,sequene learning,2024.1.5,None,2024-10-17 13h40.00.206054 +0530,
150,v,48,3,195,3,,,,,478.2379417999764,,478.22451579998597,478.2379417999764,479.2376716999861,479.2376716999861,479.2376716999861,479.2376716999861,479.2376716999861,480.2373878999788,480.2373878999788,480.68945529998746,v,1,0.4349194000242278,None,784868,001,2024-10-17_13h39.53.818,sequene learning,2024.1.5,None,2024-10-17 13h40.00.206054 +0530,
-150,z,49,0,196,0,,,,,480.7042489000014,,480.6910261999874,480.7042489000014,481.7037590999971,481.7037590999971,481.7037590999971,481.7037590999971,481.7037590999971,482.7036175999965,482.7036175999965,483.00496279998333,z,1,0.2867460999987088,None,784868,001,2024-10-17_13h39.53.818,sequene learning,2024.1.5,None,2024-10-17 13h40.00.206054 +0530,
-50,x,49,1,197,1,,,,,483.0205896999978,,483.00624649997917,483.0205896999978,484.0197686999745,484.0197686999745,484.0197686999745,484.0197686999745,484.0364273999876,485.0193655999901,485.0193655999901,485.38811569998506,x,1,0.3633497999981046,None,784868,001,2024-10-17_13h39.53.818,sequene learning,2024.1.5,None,2024-10-17 13h40.00.206054 +0530,
50,c,49,2,198,2,,,,,485.4028021999984,,485.39002539997455,485.4028021999984,486.4026016999851,486.4026016999851,486.4026016999851,486.4026016999851,486.4026016999851,487.40250070000184,487.40250070000184,487.72055969998473,c,1,0.3081265000218991,None,784868,001,2024-10-17_13h39.53.818,sequene learning,2024.1.5,None,2024-10-17 13h40.00.206054 +0530,
150,v,49,3,199,3,,,,,487.7354975999915,,487.72161969999433,487.7354975999915,488.73539009998785,488.73539009998785,488.73539009998785,488.73539009998785,488.73539009998785,489.73536939997575,489.73536939997575,490.1032822999987,v,1,0.35784850001800805,None,784868,001,2024-10-17_13h39.53.818,sequene learning,2024.1.5,None,2024-10-17 13h40.00.206054 +0530,
50,c,,,,,0,0,0,2,490.1537915999943,,490.1496361999889,490.1537915999943,491.1196559999953,491.1196559999953,491.1196559999953,491.1196559999953,491.16804649998085,492.118250599975,492.118250599975,493.62073289998807,c,1,1.4865859000128694,None,784868,001,2024-10-17_13h39.53.818,sequene learning,2024.1.5,None,2024-10-17 13h40.00.206054 +0530,
-50,x,,,,,0,1,1,1,493.6343942999956,,493.6237923000008,493.6343942999956,494.63423739999416,494.63423739999416,494.63423739999416,494.63423739999416,494.63423739999416,495.63392639998347,495.63392639998347,496.3188104000001,x,1,0.6835387999890372,None,784868,001,2024-10-17_13h39.53.818,sequene learning,2024.1.5,None,2024-10-17 13h40.00.206054 +0530,
-150,z,,,,,0,2,2,0,496.333690200001,,496.31968679997954,496.333690200001,497.33328880000045,497.33328880000045,497.33328880000045,497.33328880000045,497.33328880000045,498.3336855999951,498.3336855999951,498.7349026000011,z,1,0.39989860000787303,None,784868,001,2024-10-17_13h39.53.818,sequene learning,2024.1.5,None,2024-10-17 13h40.00.206054 +0530,
50,c,,,,,0,3,3,2,498.74994270000025,,498.7359544999781,498.74994270000025,499.7501149000018,499.7501149000018,499.7501149000018,499.7501149000018,499.7501149000018,500.74963249999564,500.74963249999564,502.5178927999805,c,1,1.758354200021131,None,784868,001,2024-10-17_13h39.53.818,sequene learning,2024.1.5,None,2024-10-17 13h40.00.206054 +0530,
-50,x,,,,,1,0,4,1,502.53243979997933,,502.5191683000012,502.53243979997933,503.53241359998356,503.53241359998356,503.53241359998356,503.53241359998356,503.53241359998356,504.5321647999808,504.5321647999808,505.0007756999985,x,1,0.4664563999976963,None,784868,001,2024-10-17_13h39.53.818,sequene learning,2024.1.5,None,2024-10-17 13h40.00.206054 +0530,
150,v,,,,,1,1,5,3,505.01533739999286,,505.001803799998,505.01533739999286,506.0151233999932,506.0151233999932,506.0151233999932,506.0151233999932,506.0151233999932,507.01488439997775,507.01488439997775,507.91600409999955,b,0,0.8886688000056893,None,784868,001,2024-10-17_13h39.53.818,sequene learning,2024.1.5,None,2024-10-17 13h40.00.206054 +0530,
150,v,,,,,1,2,6,3,507.93129659999977,,507.91714999999385,507.93129659999977,508.9312552999763,508.9312552999763,508.9312552999763,508.9312552999763,508.9312552999763,509.93127649999224,509.93127649999224,511.21664769999916,v,1,1.275455700000748,None,784868,001,2024-10-17_13h39.53.818,sequene learning,2024.1.5,None,2024-10-17 13h40.00.206054 +0530,
-150,z,,,,,1,3,7,0,511.23085359999095,,511.21845489999396,511.23085359999095,512.2306691999838,512.2306691999838,512.2306691999838,512.2306691999838,512.2306691999838,513.2300069999765,513.2300069999765,513.9310996999848,z,1,0.6936853999795858,None,784868,001,2024-10-17_13h39.53.818,sequene learning,2024.1.5,None,2024-10-17 13h40.00.206054 +0530,
-150,z,,,,,2,0,8,0,513.9467157000036,,513.932178099989,513.9467157000036,514.9466297999898,514.9466297999898,514.9466297999898,514.9466297999898,514.9466297999898,515.9464358999976,515.9464358999976,516.6313257000002,z,1,0.682423899997957,None,784868,001,2024-10-17_13h39.53.818,sequene learning,2024.1.5,None,2024-10-17 13h40.00.206054 +0530,
-50,x,,,,,2,1,9,1,516.6462326999754,,516.6324881999753,516.6462326999754,517.6460730999825,517.6460730999825,517.6460730999825,517.6460730999825,517.6460730999825,518.6457966000016,518.6457966000016,519.3297926999803,x,1,0.6682259000081103,None,784868,001,2024-10-17_13h39.53.818,sequene learning,2024.1.5,None,2024-10-17 13h40.00.206054 +0530,
150,v,,,,,2,2,10,3,519.3454823999782,,519.3323312999855,519.3454823999782,520.3456828999915,520.3456828999915,520.3456828999915,520.3456828999915,520.3456828999915,521.3453940999752,521.3453940999752,522.2631954999815,v,1,0.9037950000201818,None,784868,001,2024-10-17_13h39.53.818,sequene learning,2024.1.5,None,2024-10-17 13h40.00.206054 +0530,
150,v,,,,,2,3,11,3,522.2781521999859,,522.2645473000011,522.2781521999859,523.2780404999794,523.2780404999794,523.2780404999794,523.2780404999794,523.2780404999794,524.2777454000025,524.2777454000025,525.0787285999977,v,1,0.7845481999975163,None,784868,001,2024-10-17_13h39.53.818,sequene learning,2024.1.5,None,2024-10-17 13h40.00.206054 +0530,
-150,z,,,,,3,0,12,0,525.0944548999832,,525.0798214999959,525.0944548999832,526.0941812999954,526.0941812999954,526.0941812999954,526.0941812999954,526.0941812999954,527.0940482000005,527.0940482000005,527.8620432000025,z,1,0.7647408999910112,None,784868,001,2024-10-17_13h39.53.818,sequene learning,2024.1.5,None,2024-10-17 13h40.00.206054 +0530,
50,c,,,,,3,1,13,2,527.8767565999879,,527.8631141999795,527.8767565999879,528.8769321999862,528.8769321999862,528.8769321999862,528.8769321999862,528.8769321999862,529.8768187999958,529.8768187999958,531.0777966000023,c,1,1.192657200008398,None,784868,001,2024-10-17_13h39.53.818,sequene learning,2024.1.5,None,2024-10-17 13h40.00.206054 +0530,
-150,z,,,,,3,2,14,0,531.0931838999968,,531.0788895000005,531.0931838999968,532.0933455999766,532.0933455999766,532.0933455999766,532.0933455999766,532.0933455999766,533.0927637999994,533.0927637999994,533.7938399999985,z,1,0.6964472999970894,None,784868,001,2024-10-17_13h39.53.818,sequene learning,2024.1.5,None,2024-10-17 13h40.00.206054 +0530,
-50,x,,,,,3,3,15,1,533.8091977000004,,533.7950796999794,533.8091977000004,534.8087460999959,534.8087460999959,534.8087460999959,534.8087460999959,534.8087460999959,535.8086998999934,535.8086998999934,536.509890699992,x,1,0.6871020999969915,None,784868,001,2024-10-17_13h39.53.818,sequene learning,2024.1.5,None,2024-10-17 13h40.00.206054 +0530,
-150,z,,,,,4,0,16,0,536.5251726999995,,536.5107847999898,536.5251726999995,537.5082085999893,537.5082085999893,537.5082085999893,537.5082085999893,537.5249706999748,538.5247280999902,538.5247280999902,539.2429849999899,z,1,0.7099748000036925,None,784868,001,2024-10-17_13h39.53.818,sequene learning,2024.1.5,None,2024-10-17 13h40.00.206054 +0530,
-150,z,,,,,4,1,17,0,539.2578513999761,,539.2443628999754,539.2578513999761,540.2575958999805,540.2575958999805,540.2575958999805,540.2575958999805,540.2575958999805,541.2581333999988,541.2581333999988,541.9089847999858,z,1,0.6373962999787182,None,784868,001,2024-10-17_13h39.53.818,sequene learning,2024.1.5,None,2024-10-17 13h40.00.206054 +0530,
-50,x,,,,,4,2,18,1,541.9238642999844,,541.9102895999968,541.9238642999844,542.9238692999934,542.9238692999934,542.9238692999934,542.9238692999934,542.9238692999934,543.9235374999989,543.9235374999989,544.6086877999769,x,1,0.675362000009045,None,784868,001,2024-10-17_13h39.53.818,sequene learning,2024.1.5,None,2024-10-17 13h40.00.206054 +0530,
-50,x,,,,,4,3,19,1,544.6232913999993,,544.6096225999936,544.6232913999993,545.6235030999815,545.6235030999815,545.6235030999815,545.6235030999815,545.6235030999815,546.6227623999876,546.6227623999876,547.4414593999973,x,1,0.804103300004499,None,784868,001,2024-10-17_13h39.53.818,sequene learning,2024.1.5,None,2024-10-17 13h40.00.206054 +0530,
-50,x,,,,,5,0,20,1,547.4563655999955,,547.4423862999829,547.4563655999955,548.4565450999944,548.4565450999944,548.4565450999944,548.4565450999944,548.4565450999944,549.4558035999944,549.4558035999944,550.1580912999925,x,1,0.6947786000091583,None,784868,001,2024-10-17_13h39.53.818,sequene learning,2024.1.5,None,2024-10-17 13h40.00.206054 +0530,
-50,x,,,,,5,1,21,1,550.1722868999932,,550.1596841999853,550.1722868999932,551.1725080999895,551.1725080999895,551.1725080999895,551.1725080999895,551.1725080999895,552.1725326000014,552.1725326000014,553.1582801999757,x,1,0.9813938000006601,None,784868,001,2024-10-17_13h39.53.818,sequene learning,2024.1.5,None,2024-10-17 13h40.00.206054 +0530,
50,c,,,,,5,2,22,2,553.1716546999814,,553.160092199978,553.1716546999814,554.1719062999764,554.1719062999764,554.1719062999764,554.1719062999764,554.1719062999764,555.1710823999892,555.1710823999892,556.0562581999984,c,1,0.8833034000126645,None,784868,001,2024-10-17_13h39.53.818,sequene learning,2024.1.5,None,2024-10-17 13h40.00.206054 +0530,
150,v,,,,,5,3,23,3,556.0714408999775,,556.0568478999776,556.0714408999775,557.0709591999766,557.0709591999766,557.0709591999766,557.0709591999766,557.0709591999766,558.0703438999772,558.0703438999772,559.4209720999934,v,1,1.3378276000148617,None,784868,001,2024-10-17_13h39.53.818,sequene learning,2024.1.5,None,2024-10-17 13h40.00.206054 +0530,
-50,x,,,,,6,0,24,1,559.4370196999807,,559.4217639999988,559.4370196999807,560.4376992000034,560.4376992000034,560.4376992000034,560.4376992000034,560.4376992000034,561.4364887999836,561.4364887999836,562.0878690999816,x,1,0.6491176999988966,None,784868,001,2024-10-17_13h39.53.818,sequene learning,2024.1.5,None,2024-10-17 13h40.00.206054 +0530,
-50,x,,,,,6,1,25,1,562.1031180999998,,562.0890919999802,562.1031180999998,563.1030073000002,563.1030073000002,563.1030073000002,563.1030073000002,563.1030073000002,564.1027364999754,564.1027364999754,565.088726499991,x,1,0.9761708000150975,None,784868,001,2024-10-17_13h39.53.818,sequene learning,2024.1.5,None,2024-10-17 13h40.00.206054 +0530,
150,v,,,,,6,2,26,3,565.1028605999891,,565.0908499999787,565.1028605999891,566.1025576999818,566.1025576999818,566.1025576999818,566.1025576999818,566.1025576999818,567.1022885999992,567.1022885999992,568.1696159999992,v,1,1.0656973000150174,None,784868,001,2024-10-17_13h39.53.818,sequene learning,2024.1.5,None,2024-10-17 13h40.00.206054 +0530,
-150,z,,,,,6,3,27,0,568.185370799998,,568.1706127999933,568.185370799998,569.1851290999912,569.1851290999912,569.1851290999912,569.1851290999912,569.1851290999912,570.1850332999893,570.1850332999893,570.9201194999914,z,1,0.7250201000133529,None,784868,001,2024-10-17_13h39.53.818,sequene learning,2024.1.5,None,2024-10-17 13h40.00.206054 +0530,
150,v,,,,,7,0,28,3,570.9352491000027,,570.9217869999993,570.9352491000027,571.9344358999806,571.9344358999806,571.9344358999806,571.9344358999806,571.9344358999806,572.9348356999981,572.9348356999981,574.1679961999762,v,1,1.217561299999943,None,784868,001,2024-10-17_13h39.53.818,sequene learning,2024.1.5,None,2024-10-17 13h40.00.206054 +0530,
-50,x,,,,,7,1,29,1,574.1838096999854,,574.1696340999915,574.1838096999854,575.1835207999975,575.1835207999975,575.1835207999975,575.1835207999975,575.1835207999975,576.1840698999877,576.1840698999877,576.9013837999955,x,1,0.7047890000103507,None,784868,001,2024-10-17_13h39.53.818,sequene learning,2024.1.5,None,2024-10-17 13h40.00.206054 +0530,
-150,z,,,,,7,2,30,0,576.9165771999978,,576.902677599981,576.9165771999978,577.9163756999769,577.9163756999769,577.9163756999769,577.9163756999769,577.9163756999769,578.9161446999933,578.9161446999933,579.6723699999857,z,1,0.7366755999973975,None,784868,001,2024-10-17_13h39.53.818,sequene learning,2024.1.5,None,2024-10-17 13h40.00.206054 +0530,
50,c,,,,,7,3,31,2,579.6827837000019,,579.6735058999911,579.6827837000019,580.6825654999993,580.6825654999993,580.6825654999993,580.6825654999993,580.6825654999993,581.6823574999871,581.6823574999871,582.3662837999873,c,1,0.6690602000162471,None,784868,001,2024-10-17_13h39.53.818,sequene learning,2024.1.5,None,2024-10-17 13h40.00.206054 +0530,
-150,z,,,,,8,0,32,0,582.38212319999,,582.3672697999864,582.38212319999,583.3821784000029,583.3821784000029,583.3821784000029,583.3821784000029,583.3821784000029,584.3818544999813,584.3818544999813,585.1653782999783,z,1,0.7745819000119809,None,784868,001,2024-10-17_13h39.53.818,sequene learning,2024.1.5,None,2024-10-17 13h40.00.206054 +0530,
-50,x,,,,,8,1,33,1,585.1814502999769,,585.1662893999892,585.1814502999769,586.1651841999847,586.1651841999847,586.1651841999847,586.1651841999847,586.1815244999889,587.1810438999964,587.1810438999964,587.8489414999785,x,1,0.6585252999793738,None,784868,001,2024-10-17_13h39.53.818,sequene learning,2024.1.5,None,2024-10-17 13h40.00.206054 +0530,
-150,z,,,,,8,2,34,0,587.8640103999933,,587.849828299979,587.8640103999933,588.864201999997,588.864201999997,588.864201999997,588.864201999997,588.864201999997,589.8640881999745,589.8640881999745,590.5485446999955,z,1,0.6723687000048812,None,784868,001,2024-10-17_13h39.53.818,sequene learning,2024.1.5,None,2024-10-17 13h40.00.206054 +0530,
150,v,,,,,8,3,35,3,590.5638267000031,,590.5498194999818,590.5638267000031,591.5635859999747,591.5635859999747,591.5635859999747,591.5635859999747,591.5635859999747,592.5634750000027,592.5634750000027,593.4643320999749,v,1,0.8942565000033937,None,784868,001,2024-10-17_13h39.53.818,sequene learning,2024.1.5,None,2024-10-17 13h40.00.206054 +0530,
150,v,,,,,9,0,36,3,593.4798735999793,,593.4657122999779,593.4798735999793,594.4797591999813,594.4797591999813,594.4797591999813,594.4797591999813,594.4797591999813,595.4793924999831,595.4793924999831,596.8144807999779,v,1,1.3204229999973904,None,784868,001,2024-10-17_13h39.53.818,sequene learning,2024.1.5,None,2024-10-17 13h40.00.206054 +0530,
-50,x,,,,,9,1,37,1,596.8293578999874,,596.8161213999847,596.8293578999874,597.8288317999977,597.8288317999977,597.8288317999977,597.8288317999977,597.8288317999977,598.8291372999956,598.8291372999956,599.614445299987,x,1,0.7761952999862842,None,784868,001,2024-10-17_13h39.53.818,sequene learning,2024.1.5,None,2024-10-17 13h40.00.206054 +0530,
50,c,,,,,9,2,38,2,599.6286293999874,,599.6162935999746,599.6286293999874,600.6285668999772,600.6285668999772,600.6285668999772,600.6285668999772,600.6285668999772,601.6280982999888,601.6280982999888,602.3460933000024,c,1,0.7127540000074077,None,784868,001,2024-10-17_13h39.53.818,sequene learning,2024.1.5,None,2024-10-17 13h40.00.206054 +0530,
-50,x,,,,,9,3,39,1,602.3610230999766,,602.3473985999881,602.3610230999766,603.3610645000008,603.3610645000008,603.3610645000008,603.3610645000008,603.3610645000008,604.3607965999981,604.3607965999981,605.0120196999924,x,1,0.6385531999985687,None,784868,001,2024-10-17_13h39.53.818,sequene learning,2024.1.5,None,2024-10-17 13h40.00.206054 +0530,
-50,x,,,,,10,0,40,1,605.0273279999965,,605.0135499000025,605.0273279999965,606.0271128999884,606.0271128999884,606.0271128999884,606.0271128999884,606.0271128999884,607.026996999979,607.026996999979,607.8282693999936,x,1,0.7855585999786854,None,784868,001,2024-10-17_13h39.53.818,sequene learning,2024.1.5,None,2024-10-17 13h40.00.206054 +0530,
50,c,,,,,10,1,41,2,607.8434545999917,,607.8303078000026,607.8434545999917,608.8431497999991,608.8431497999991,608.8431497999991,608.8431497999991,608.8431497999991,609.8432420000026,609.8432420000026,610.5782671999768,c,1,0.7307512999977916,None,784868,001,2024-10-17_13h39.53.818,sequene learning,2024.1.5,None,2024-10-17 13h40.00.206054 +0530,
50,c,,,,,10,2,42,2,610.593035799975,,610.579479899985,610.593035799975,611.5929399000015,611.5929399000015,611.5929399000015,611.5929399000015,611.5929399000015,612.5923478999757,612.5923478999757,613.4429587999766,c,1,0.837182200019015,None,784868,001,2024-10-17_13h39.53.818,sequene learning,2024.1.5,None,2024-10-17 13h40.00.206054 +0530,
150,v,,,,,10,3,43,3,613.4589180999901,,613.443944699975,613.4589180999901,614.4590228000015,614.4590228000015,614.4590228000015,614.4590228000015,614.4590228000015,615.4584320999857,615.4584320999857,616.409482499992,v,1,0.9491818000096828,None,784868,001,2024-10-17_13h39.53.818,sequene learning,2024.1.5,None,2024-10-17 13h40.00.206054 +0530,
150,v,,,,,11,0,44,3,616.424769699981,,616.410169299983,616.424769699981,617.4250869999814,617.4250869999814,617.4250869999814,617.4250869999814,617.4250869999814,618.4245635999832,618.4245635999832,619.1433059999836,v,1,0.704346299986355,None,784868,001,2024-10-17_13h39.53.818,sequene learning,2024.1.5,None,2024-10-17 13h40.00.206054 +0530,
150,v,,,,,11,1,45,3,619.1577655999863,,619.1448495999794,619.1577655999863,620.1574541000009,620.1574541000009,620.1574541000009,620.1574541000009,620.1574541000009,621.1571717999759,621.1571717999759,621.992322599981,v,1,0.8302410000178497,None,784868,001,2024-10-17_13h39.53.818,sequene learning,2024.1.5,None,2024-10-17 13h40.00.206054 +0530,
50,c,,,,,11,2,46,2,622.0070851999917,,621.9935844999854,622.0070851999917,623.0069441999949,623.0069441999949,623.0069441999949,623.0069441999949,623.0069441999949,624.0069204999891,624.0069204999891,625.0929497999896,c,1,1.0822119000076782,None,784868,001,2024-10-17_13h39.53.818,sequene learning,2024.1.5,None,2024-10-17 13h40.00.206054 +0530,
150,v,,,,,11,3,47,3,625.1065099999832,,625.0943348000001,625.1065099999832,626.1065876999928,626.1065876999928,626.1065876999928,626.1065876999928,626.1065876999928,627.1059375999903,627.1059375999903,628.4893969999976,v,1,1.3780368999869097,None,784868,001,2024-10-17_13h39.53.818,sequene learning,2024.1.5,None,2024-10-17 13h40.00.206054 +0530,
-150,z,,,,,12,0,48,0,628.5055946999928,,628.4899107999809,628.5055946999928,629.4891586999875,629.4891586999875,629.4891586999875,629.4891586999875,629.5059524999815,630.4887831999804,630.4887831999804,631.2732513999799,z,1,0.7715126000111923,None,784868,001,2024-10-17_13h39.53.818,sequene learning,2024.1.5,None,2024-10-17 13h40.00.206054 +0530,
-150,z,,,,,12,1,49,0,631.2886568999966,,631.2752955000033,631.2886568999966,632.288418799988,632.288418799988,632.288418799988,632.288418799988,632.288418799988,633.288269599987,633.288269599987,634.1414584000013,z,1,0.8502296000078786,None,784868,001,2024-10-17_13h39.53.818,sequene learning,2024.1.5,None,2024-10-17 13h40.00.206054 +0530,
-50,x,,,,,12,2,50,1,634.1545785999915,,634.1432708999782,634.1545785999915,635.154326799995,635.154326799995,635.154326799995,635.154326799995,635.154326799995,636.1540850999882,636.1540850999882,636.8875668999972,x,1,0.7208363999961875,None,784868,001,2024-10-17_13h39.53.818,sequene learning,2024.1.5,None,2024-10-17 13h40.00.206054 +0530,
-50,x,,,,,12,3,51,1,636.9038369999907,,636.8887823999976,636.9038369999907,637.8869127999933,637.8869127999933,637.8869127999933,637.8869127999933,637.9038983999926,638.9036266999901,638.9036266999901,639.6378857999807,x,1,0.7174323999788612,None,784868,001,2024-10-17_13h39.53.818,sequene learning,2024.1.5,None,2024-10-17 13h40.00.206054 +0530,
150,v,,,,,13,0,52,3,639.6532376999967,,639.6391876999987,639.6532376999967,640.6530568999879,640.6530568999879,640.6530568999879,640.6530568999879,640.6530568999879,641.6527845999808,641.6527845999808,642.4545288999798,v,1,0.7990620999771636,None,784868,001,2024-10-17_13h39.53.818,sequene learning,2024.1.5,None,2024-10-17 13h40.00.206054 +0530,
50,c,,,,,13,1,53,2,642.4692834999878,,642.4556854999973,642.4692834999878,643.4690336999774,643.4690336999774,643.4690336999774,643.4690336999774,643.4690336999774,644.4689822999935,644.4689822999935,645.3368552000029,c,1,0.8616145999985747,None,784868,001,2024-10-17_13h39.53.818,sequene learning,2024.1.5,None,2024-10-17 13h40.00.206054 +0530,
-50,x,,,,,13,2,54,1,645.3521743000019,,645.3381753999856,645.3521743000019,646.35173699999,646.35173699999,646.35173699999,646.35173699999,646.35173699999,647.3518196999794,647.3518196999794,648.0871272999793,x,1,0.7182337999984156,None,784868,001,2024-10-17_13h39.53.818,sequene learning,2024.1.5,None,2024-10-17 13h40.00.206054 +0530,
50,c,,,,,13,3,55,2,648.1017449999927,,648.0886475000007,648.1017449999927,649.1012118999788,649.1012118999788,649.1012118999788,649.1012118999788,649.1012118999788,650.1012300000002,650.1012300000002,650.8689852999814,c,1,0.7543911999964621,None,784868,001,2024-10-17_13h39.53.818,sequene learning,2024.1.5,None,2024-10-17 13h40.00.206054 +0530,
50,c,,,,,14,0,56,2,650.8842273999762,,650.8704234999896,650.8842273999762,651.883949799987,651.883949799987,651.883949799987,651.883949799987,651.883949799987,652.883817199996,652.883817199996,653.7519796999986,c,1,0.855949699995108,None,784868,001,2024-10-17_13h39.53.818,sequene learning,2024.1.5,None,2024-10-17 13h40.00.206054 +0530,
150,v,,,,,14,1,57,3,653.7671320999798,,653.7535879999923,653.7671320999798,654.7667254999978,654.7667254999978,654.7667254999978,654.7667254999978,654.7667254999978,655.7664078999951,655.7664078999951,658.1171189000015,v,1,2.344491999974707,None,784868,001,2024-10-17_13h39.53.818,sequene learning,2024.1.5,None,2024-10-17 13h40.00.206054 +0530,
-150,z,,,,,14,2,58,0,658.1327583999955,,658.1189525999944,658.1327583999955,659.1326745999977,659.1326745999977,659.1326745999977,659.1326745999977,659.1326745999977,660.1324106999964,660.1324106999964,660.8332248999795,z,1,0.6928393000271171,None,784868,001,2024-10-17_13h39.53.818,sequene learning,2024.1.5,None,2024-10-17 13h40.00.206054 +0530,
-50,x,,,,,14,3,59,1,660.8487527999969,,660.8345574999985,660.8487527999969,661.8486435999803,661.8486435999803,661.8486435999803,661.8486435999803,661.8486435999803,662.8484900999756,662.8484900999756,663.5499362999981,x,1,0.6857361000147648,None,784868,001,2024-10-17_13h39.53.818,sequene learning,2024.1.5,None,2024-10-17 13h40.00.206054 +0530,
-150,z,,,,,15,0,60,0,663.564861699997,,663.5513711999811,663.564861699997,664.5647979999776,664.5647979999776,664.5647979999776,664.5647979999776,664.5647979999776,665.564292199997,665.564292199997,666.3148911999888,z,1,0.7363349000224844,None,784868,001,2024-10-17_13h39.53.818,sequene learning,2024.1.5,None,2024-10-17 13h40.00.206054 +0530,
-50,x,,,,,15,1,61,1,666.3309465999773,,666.3156892999832,666.3309465999773,667.3311067999748,667.3311067999748,667.3311067999748,667.3311067999748,667.3311067999748,668.3304234999814,668.3304234999814,669.0986833999923,x,1,0.7567222000216134,None,784868,001,2024-10-17_13h39.53.818,sequene learning,2024.1.5,None,2024-10-17 13h40.00.206054 +0530,
-150,z,,,,,15,2,62,0,669.1135403999942,,669.100105199992,669.1135403999942,670.1134984999953,670.1134984999953,670.1134984999953,670.1134984999953,670.1134984999953,671.1132724999916,671.1132724999916,671.9985114999872,z,1,0.8685768000141252,None,784868,001,2024-10-17_13h39.53.818,sequene learning,2024.1.5,None,2024-10-17 13h40.00.206054 +0530,
150,v,,,,,15,3,63,3,672.0131978999998,,672.0002503999858,672.0131978999998,673.0126341999858,673.0126341999858,673.0126341999858,673.0126341999858,673.0126341999858,674.012329899997,674.012329899997,676.6797194999817,v,1,2.652094799996121,None,784868,001,2024-10-17_13h39.53.818,sequene learning,2024.1.5,None,2024-10-17 13h40.00.206054 +0530,
150,v,,,,,16,0,64,3,676.695576099999,,676.6810067999759,676.695576099999,677.6953400999773,677.6953400999773,677.6953400999773,677.6953400999773,677.6953400999773,678.6953159999975,678.6953159999975,679.4626655999746,v,1,0.7655934000213165,None,784868,001,2024-10-17_13h39.53.818,sequene learning,2024.1.5,None,2024-10-17 13h40.00.206054 +0530,
-150,z,,,,,16,1,65,0,679.4786817999848,,679.4638872999931,679.4786817999848,680.4782299999788,680.4782299999788,680.4782299999788,680.4782299999788,680.4782299999788,681.4776410999766,681.4776410999766,682.3802099000022,z,1,0.8996970000152942,None,784868,001,2024-10-17_13h39.53.818,sequene learning,2024.1.5,None,2024-10-17 13h40.00.206054 +0530,
-50,x,,,,,16,2,66,1,682.394438999996,,682.3819107000018,682.394438999996,683.3944161999971,683.3944161999971,683.3944161999971,683.3944161999971,683.3944161999971,684.394004599977,684.394004599977,685.2447958999837,x,1,0.8491651999938767,None,784868,001,2024-10-17_13h39.53.818,sequene learning,2024.1.5,None,2024-10-17 13h40.00.206054 +0530,
-50,x,,,,,16,3,67,1,685.2600929999899,,685.2458375999995,685.2600929999899,686.2600292999996,686.2600292999996,686.2600292999996,686.2600292999996,686.2600292999996,687.2596803999913,687.2596803999913,688.2776423000032,x,1,1.0130785999936052,None,784868,001,2024-10-17_13h39.53.818,sequene learning,2024.1.5,None,2024-10-17 13h40.00.206054 +0530,
50,c,,,,,17,0,68,2,688.2930125999846,,688.278848899994,688.2930125999846,689.2933064999816,689.2933064999816,689.2933064999816,689.2933064999816,689.2933064999816,690.2926423999888,690.2926423999888,690.9946425999806,c,1,0.6975623000180349,None,784868,001,2024-10-17_13h39.53.818,sequene learning,2024.1.5,None,2024-10-17 13h40.00.206054 +0530,
150,v,,,,,17,1,69,3,691.0092196999758,,690.9959837999777,691.0092196999758,692.0087509999867,692.0087509999867,692.0087509999867,692.0087509999867,692.0087509999867,693.0085768999998,693.0085768999998,693.8937464999908,v,1,0.8767685000202619,None,784868,001,2024-10-17_13h39.53.818,sequene learning,2024.1.5,None,2024-10-17 13h40.00.206054 +0530,
150,v,,,,,17,2,70,3,693.9089752,,693.8950183999841,693.9089752,694.9083038999815,694.9083038999815,694.9083038999815,694.9083038999815,694.9083038999815,695.9079539999948,695.9079539999948,696.6418749000004,v,1,0.7307870999793522,None,784868,001,2024-10-17_13h39.53.818,sequene learning,2024.1.5,None,2024-10-17 13h40.00.206054 +0530,
-50,x,,,,,17,3,71,1,696.6576747999934,,696.6429113999766,696.6576747999934,697.6576439999917,697.6576439999917,697.6576439999917,697.6576439999917,697.6576439999917,698.6575087999809,698.6575087999809,699.4963367999881,x,1,0.8254628999857232,None,784868,001,2024-10-17_13h39.53.818,sequene learning,2024.1.5,None,2024-10-17 13h40.00.206054 +0530,
150,v,,,,,18,0,72,3,699.5070879999839,,699.4972927999916,699.5070879999839,700.50696899998,700.50696899998,700.50696899998,700.50696899998,700.50696899998,701.5066939999815,701.5066939999815,702.2412452999852,v,1,0.7323545999825001,None,784868,001,2024-10-17_13h39.53.818,sequene learning,2024.1.5,None,2024-10-17 13h40.00.206054 +0530,
-150,z,,,,,18,1,73,0,702.2565791999805,,702.2425549999753,702.2565791999805,703.2564065999759,703.2564065999759,703.2564065999759,703.2564065999759,703.2564065999759,704.2563514999929,704.2563514999929,704.9243740999955,z,1,0.6635110999923199,None,784868,001,2024-10-17_13h39.53.818,sequene learning,2024.1.5,None,2024-10-17 13h40.00.206054 +0530,
-150,z,,,,,18,2,74,0,704.9394758999988,,704.9258147999935,704.9394758999988,705.9393761999963,705.9393761999963,705.9393761999963,705.9393761999963,705.9393761999963,706.9391237999953,706.9391237999953,707.6410950999998,z,1,0.6867268000205513,None,784868,001,2024-10-17_13h39.53.818,sequene learning,2024.1.5,None,2024-10-17 13h40.00.206054 +0530,
150,v,,,,,18,3,75,3,707.6555219999864,,707.6429181999993,707.6555219999864,708.6552231999813,708.6552231999813,708.6552231999813,708.6552231999813,708.6552231999813,709.6552096999949,709.6552096999949,710.4226399999752,v,1,0.7591467000020202,None,784868,001,2024-10-17_13h39.53.818,sequene learning,2024.1.5,None,2024-10-17 13h40.00.206054 +0530,
150,v,,,,,19,0,76,3,710.4382520999934,,710.4237316999934,710.4382520999934,711.4381028999924,711.4381028999924,711.4381028999924,711.4381028999924,711.4381028999924,712.4380568999914,712.4380568999914,713.6397125999792,v,1,1.187394000007771,None,784868,001,2024-10-17_13h39.53.818,sequene learning,2024.1.5,None,2024-10-17 13h40.00.206054 +0530,
-50,x,,,,,19,1,77,1,713.6540648999799,,713.6410818999866,713.6540648999799,714.6540030000033,714.6540030000033,714.6540030000033,714.6540030000033,714.6540030000033,715.6535012999957,715.6535012999957,716.4222814999812,x,1,0.7536178000154905,None,784868,001,2024-10-17_13h39.53.818,sequene learning,2024.1.5,None,2024-10-17 13h40.00.206054 +0530,
50,c,,,,,19,2,78,2,716.4376852999849,,716.4236827999994,716.4376852999849,717.4365682999778,717.4365682999778,717.4365682999778,717.4365682999778,717.4365682999778,718.4365269999835,718.4365269999835,719.2553420999902,c,1,0.812303900020197,None,784868,001,2024-10-17_13h39.53.818,sequene learning,2024.1.5,None,2024-10-17 13h40.00.206054 +0530,
150,v,,,,,19,3,79,3,719.2698282999918,,719.2567424000008,719.2698282999918,720.2695259999891,720.2695259999891,720.2695259999891,720.2695259999891,720.2695259999891,721.2693011999945,721.2693011999945,722.2365439999849,v,1,0.9570281000051182,None,784868,001,2024-10-17_13h39.53.818,sequene learning,2024.1.5,None,2024-10-17 13h40.00.206054 +0530,
-150,z,,,,,20,0,80,0,722.2524581000034,,722.2385210999928,722.2524581000034,723.252181799995,723.252181799995,723.252181799995,723.252181799995,723.252181799995,724.2520527000015,724.2520527000015,725.836897399975,z,1,1.571667799988063,None,784868,001,2024-10-17_13h39.53.818,sequene learning,2024.1.5,None,2024-10-17 13h40.00.206054 +0530,
150,v,,,,,20,1,81,3,725.8517078000004,,725.8382975999848,725.8517078000004,726.8514328000019,726.8514328000019,726.8514328000019,726.8514328000019,726.8514328000019,727.8510626999778,727.8510626999778,728.6698443999921,v,1,0.8015278999810107,None,784868,001,2024-10-17_13h39.53.818,sequene learning,2024.1.5,None,2024-10-17 13h40.00.206054 +0530,
-150,z,,,,,20,2,82,0,728.6844854999799,,728.6718771999876,728.6844854999799,729.6841999999888,729.6841999999888,729.6841999999888,729.6841999999888,729.6841999999888,730.6841559000022,730.6841559000022,731.5698276999756,z,1,0.8743436000077054,None,784868,001,2024-10-17_13h39.53.818,sequene learning,2024.1.5,None,2024-10-17 13h40.00.206054 +0530,
50,c,,,,,20,3,83,2,731.5847110999748,,731.5713711999997,731.5847110999748,732.5837928999972,732.5837928999972,732.5837928999972,732.5837928999972,732.5999632999883,733.5835720000032,733.5835720000032,734.2012690999836,c,1,0.6157492000202183,None,784868,001,2024-10-17_13h39.53.818,sequene learning,2024.1.5,None,2024-10-17 13h40.00.206054 +0530,
