words,condition,trials.thisRepN,trials.thisTrialN,trials.thisN,trials.thisIndex,trials_2.thisRepN,trials_2.thisTrialN,trials_2.thisN,trials_2.thisIndex,thisRow.t,notes,Instructions.started,instructions_text.started,instruction_key.started,Instructions.stopped,instruction_key.keys,instruction_key.rt,instruction_key.duration,Fixation.started,wordtext.started,Fixation.stopped,wordtext.stopped,Recall.started,recall_key.started,recall_instructions.started,recall_textbox.started,recall_instructions.stopped,Recall.stopped,recall_textbox.text,recall_key.keys,recall_key.corr,recall_key.rt,recall_key.duration,EndScreen.started,end_text.started,participant,session,date,expName,psychopyVersion,frameRate,expStart,
,,,,,,,,,,,,0.003042900003492832,0.007913700072094798,0.007913700072094798,1.8767583000008017,space,1.77760890009813,None,,,,,,,,,,,,,,,,,,03,001,2024-11-28_01h16.36.517,experiment psycho,2024.1.5,None,2024-11-28 01h16.50.308581 +0530,
constellation,long,0,0,0,7,,,,,1.8953682999126613,,,,,,,,,1.8891892998944968,2.8819097001105547,4.878876599948853,,,,,,,,,,,,,,,03,001,2024-11-28_01h16.36.517,experiment psycho,2024.1.5,None,2024-11-28 01h16.50.308581 +0530,
collaboration,long,0,1,1,11,,,,,4.8953273999504745,,,,,,,,,4.879182799952105,5.877090400084853,7.874371899990365,7.890389800071716,,,,,,,,,,,,,,03,001,2024-11-28_01h16.36.517,experiment psycho,2024.1.5,None,2024-11-28 01h16.50.308581 +0530,
sun,short,0,2,2,8,,,,,7.890389800071716,,,,,,,,,7.8746356999035925,8.888796699931845,10.885842599906027,,,,,,,,,,,,,,,03,001,2024-11-28_01h16.36.517,experiment psycho,2024.1.5,None,2024-11-28 01h16.50.308581 +0530,
enlightenment,long,0,3,3,17,,,,,10.902247600024566,,,,,,,,,10.886152399936691,11.883935099933296,13.880859700031579,,,,,,,,,,,,,,,03,001,2024-11-28_01h16.36.517,experiment psycho,2024.1.5,None,2024-11-28 01h16.50.308581 +0530,
transformation,long,0,4,4,5,,,,,13.89733810001053,,,,,,,,,13.881124099949375,14.879327199887484,16.876628200057894,16.892668599961326,,,,,,,,,,,,,,03,001,2024-11-28_01h16.36.517,experiment psycho,2024.1.5,None,2024-11-28 01h16.50.308581 +0530,
perseverance,long,0,5,5,1,,,,,16.892668599961326,,,,,,,,,16.87692640000023,17.89116009999998,19.887904400005937,,,,,,,,,,,,,,,03,001,2024-11-28_01h16.36.517,experiment psycho,2024.1.5,None,2024-11-28 01h16.50.308581 +0530,
flame,short,0,6,6,2,,,,,19.90438239998184,,,,,,,,,19.888171799946576,20.88607609993778,22.88310099998489,,,,,,,,,,,,,,,03,001,2024-11-28_01h16.36.517,experiment psycho,2024.1.5,None,2024-11-28 01h16.50.308581 +0530,
imagination,long,0,7,7,19,,,,,22.899686800083145,,,,,,,,,22.883347700117156,23.881640099920332,25.87838070001453,,,,,,,,,,,,,,,03,001,2024-11-28_01h16.36.517,experiment psycho,2024.1.5,None,2024-11-28 01h16.50.308581 +0530,
exploration,long,0,8,8,9,,,,,25.89466520003043,,,,,,,,,25.878717199899256,26.876577700022608,28.873961699893698,28.889887399971485,,,,,,,,,,,,,,03,001,2024-11-28_01h16.36.517,experiment psycho,2024.1.5,None,2024-11-28 01h16.50.308581 +0530,
light,short,0,9,9,14,,,,,28.889887399971485,,,,,,,,,28.874206400010735,29.88843990000896,31.885362199973315,,,,,,,,,,,,,,,03,001,2024-11-28_01h16.36.517,experiment psycho,2024.1.5,None,2024-11-28 01h16.50.308581 +0530,
responsibility,long,0,10,10,3,,,,,31.90190889989026,,,,,,,,,31.88574540009722,32.88355299993418,34.8804299000185,,,,,,,,,,,,,,,03,001,2024-11-28_01h16.36.517,experiment psycho,2024.1.5,None,2024-11-28 01h16.50.308581 +0530,
tree,short,0,11,11,16,,,,,34.89688159991056,,,,,,,,,34.88079639989883,35.87871249997988,37.875970100052655,37.892066800035536,,,,,,,,,,,,,,03,001,2024-11-28_01h16.36.517,experiment psycho,2024.1.5,None,2024-11-28 01h16.50.308581 +0530,
smile,short,0,12,12,4,,,,,37.892066800035536,,,,,,,,,37.87632960011251,38.89045930001885,40.88734170002863,,,,,,,,,,,,,,,03,001,2024-11-28_01h16.36.517,experiment psycho,2024.1.5,None,2024-11-28 01h16.50.308581 +0530,
stone,short,0,13,13,18,,,,,40.90382939996198,,,,,,,,,40.88763549993746,41.885687900008634,43.88260050001554,,,,,,,,,,,,,,,03,001,2024-11-28_01h16.36.517,experiment psycho,2024.1.5,None,2024-11-28 01h16.50.308581 +0530,
anticipation,long,0,14,14,15,,,,,43.89906660001725,,,,,,,,,43.883007999975234,44.88101239991374,46.877881600055844,,,,,,,,,,,,,,,03,001,2024-11-28_01h16.36.517,experiment psycho,2024.1.5,None,2024-11-28 01h16.50.308581 +0530,
melancholy,long,0,15,15,13,,,,,46.89427959988825,,,,,,,,,46.87831939989701,47.87613070011139,49.87340950011276,49.889428599970415,,,,,,,,,,,,,,03,001,2024-11-28_01h16.36.517,experiment psycho,2024.1.5,None,2024-11-28 01h16.50.308581 +0530,
moon,short,0,16,16,12,,,,,49.889428599970415,,,,,,,,,49.87378320004791,50.88786939997226,52.88516160007566,,,,,,,,,,,,,,,03,001,2024-11-28_01h16.36.517,experiment psycho,2024.1.5,None,2024-11-28 01h16.50.308581 +0530,
book,short,0,17,17,6,,,,,52.90121669997461,,,,,,,,,52.88561649993062,53.883044299902394,55.88000490004197,,,,,,,,,,,,,,,03,001,2024-11-28_01h16.36.517,experiment psycho,2024.1.5,None,2024-11-28 01h16.50.308581 +0530,
cloud,short,0,18,18,10,,,,,55.896483700023964,,,,,,,,,55.88039859989658,56.87825360009447,58.8755286000669,58.89163370011374,,,,,,,,,,,,,,03,001,2024-11-28_01h16.36.517,experiment psycho,2024.1.5,None,2024-11-28 01h16.50.308581 +0530,
rain,short,0,19,19,0,,,,,58.89163370011374,,,,,,,,,58.87591699999757,59.89007929991931,61.886961800046265,,,,,,,,,,,,,,,03,001,2024-11-28_01h16.36.517,experiment psycho,2024.1.5,None,2024-11-28 01h16.50.308581 +0530,
,,,,,,0,0,0,0,61.90816659992561,,,,,,,,,,,,,61.88825990003534,61.90816659992561,62.88560219993815,65.88419990008697,66.89899850008078,68.34783910005353,rain,['right'],0,[6.436671199975535],[None],,,03,001,2024-11-28_01h16.36.517,experiment psycho,2024.1.5,None,2024-11-28 01h16.50.308581 +0530,
,,,,,,1,0,1,0,68.35972049995326,,,,,,,,,,,,,68.34949170006439,68.35972049995326,69.35835270001553,72.35700440010987,73.37150479992852,77.68237500009127,constellation,['right'],0,[9.316608499968424],[None],,,03,001,2024-11-28_01h16.36.517,experiment psycho,2024.1.5,None,2024-11-28 01h16.50.308581 +0530,
,,,,,,2,0,2,0,77.69471239997074,,,,,,,,,,,,,77.68370659998618,77.69471239997074,78.69333819998428,81.69209629995748,82.70708449999802,84.57133670011535,cloud,['right'],0,[6.861799400066957],[None],,,03,001,2024-11-28_01h16.36.517,experiment psycho,2024.1.5,None,2024-11-28 01h16.50.308581 +0530,
,,,,,,3,0,3,0,84.5836465000175,,,,,,,,,,,,,84.57267250004224,84.5836465000175,85.58227559993975,,,87.36368090007454,,['right'],0,[2.7663551999721676],[None],,,03,001,2024-11-28_01h16.36.517,experiment psycho,2024.1.5,None,2024-11-28 01h16.50.308581 +0530,
,,,,,,4,0,4,0,87.37915450008586,,,,,,,,,,,,,87.36481730011292,87.37915450008586,88.37790980003774,91.37636970006861,92.39129699999467,94.65504120010883,book,['right'],0,[7.265287999995053],[None],,,03,001,2024-11-28_01h16.36.517,experiment psycho,2024.1.5,None,2024-11-28 01h16.50.308581 +0530,
,,,,,,5,0,5,0,94.66766269993968,,,,,,,,,,,,,94.65576420002617,94.66766269993968,95.66634400002658,98.66481749992818,99.67946309992112,100.8951288999524,moon,['right'],0,[6.216778500005603],[None],,,03,001,2024-11-28_01h16.36.517,experiment psycho,2024.1.5,None,2024-11-28 01h16.50.308581 +0530,
,,,,,,6,0,6,0,100.90738260000944,,,,,,,,,,,,,100.89599730004556,100.90738260000944,101.90605479991063,104.90471619996242,105.91942799999379,108.79926529992372,stone,['right'],0,[7.875363399973139],[None],,,03,001,2024-11-28_01h16.36.517,experiment psycho,2024.1.5,None,2024-11-28 01h16.50.308581 +0530,
,,,,,,7,0,7,0,108.81156609999016,,,,,,,,,,,,,108.80002299998887,108.81156609999016,109.81037619989365,112.80866710003465,113.8234554999508,116.60402230010368,imagination,['right'],0,[7.791086599929258],[None],,,03,001,2024-11-28_01h16.36.517,experiment psycho,2024.1.5,None,2024-11-28 01h16.50.308581 +0530,
,,,,,,8,0,8,0,116.61567449988797,,,,,,,,,,,,,116.60473740007728,116.61567449988797,117.61435150005855,120.61294059990905,121.62765799998306,122.37789359991439,tree,['right'],0,[5.754748000064865],[None],,,03,001,2024-11-28_01h16.36.517,experiment psycho,2024.1.5,None,2024-11-28 01h16.50.308581 +0530,
,,,,,,9,0,9,0,122.38973519997671,,,,,,,,,,,,,122.37897589989007,122.38973519997671,123.38840040005744,126.3869044999592,127.40172569989227,128.85012650000863,flame,['right'],0,[6.44786630012095],[None],,,03,001,2024-11-28_01h16.36.517,experiment psycho,2024.1.5,None,2024-11-28 01h16.50.308581 +0530,
,,,,,,10,0,10,0,128.86280020000413,,,,,,,,,,,,,128.85084800003096,128.86280020000413,129.86148889991455,132.85968509991653,133.8748824999202,138.0191261,constellation,['right'],0,[9.147476699901745],[None],,,03,001,2024-11-28_01h16.36.517,experiment psycho,2024.1.5,None,2024-11-28 01h16.50.308581 +0530,
,,,,,,11,0,11,0,138.03128640004434,,,,,,,,,,,,,138.01988529996015,138.03128640004434,139.0299050998874,142.02837550011463,143.043234199984,144.1261821000371,sun,['right'],0,[6.093590400181711],[None],,,03,001,2024-11-28_01h16.36.517,experiment psycho,2024.1.5,None,2024-11-28 01h16.50.308581 +0530,
,,,,,,12,0,12,0,144.13811980001628,,,,,,,,,,,,,144.1271190000698,144.13811980001628,145.13686640001833,,,145.902878300054,,['right'],0,[1.760846900055185],[None],,,03,001,2024-11-28_01h16.36.517,experiment psycho,2024.1.5,None,2024-11-28 01h16.50.308581 +0530,
,,,,,,13,0,13,0,145.9186046998948,,,,,,,,,,,,,145.90359980007634,145.9186046998948,146.91741050011478,,,147.65036479989067,,['right'],0,[1.716275499900803],[None],,,03,001,2024-11-28_01h16.36.517,experiment psycho,2024.1.5,None,2024-11-28 01h16.50.308581 +0530,
,,,,,,14,0,14,0,147.6656251999084,,,,,,,,,,,,,147.6516819000244,147.6656251999084,148.66433709999546,,,150.6454288000241,,['right'],0,[2.975027299951762],[None],,,03,001,2024-11-28_01h16.36.517,experiment psycho,2024.1.5,None,2024-11-28 01h16.50.308581 +0530,
,,,,,,15,0,15,0,150.6608005000744,,,,,,,,,,,,,150.6465427998919,150.6608005000744,151.65946449991316,154.65826579998247,,155.34151909989305,,['right'],0,[4.67800460010767],[None],,,03,001,2024-11-28_01h16.36.517,experiment psycho,2024.1.5,None,2024-11-28 01h16.50.308581 +0530,
,,,,,,16,0,16,0,155.3531973999925,,,,,,,,,,,,,155.34241329994984,155.3531973999925,156.35189540009014,159.350516699953,160.3652908001095,166.88963359990157,exploration,['right'],0,[11.530256600119174],[None],,,03,001,2024-11-28_01h16.36.517,experiment psycho,2024.1.5,None,2024-11-28 01h16.50.308581 +0530,
,,,,,,17,0,17,0,166.90131859993562,,,,,,,,,,,,,166.8910894000437,166.90131859993562,167.90005469997413,,,168.26702399994247,,['right'],0,[1.3530526999384165],[None],,,03,001,2024-11-28_01h16.36.517,experiment psycho,2024.1.5,None,2024-11-28 01h16.50.308581 +0530,
,,,,,,18,0,18,0,168.28244689991698,,,,,,,,,,,,,168.2683178000152,168.28244689991698,169.28113780007698,,,169.5980698999483,,['right'],0,[1.303657699842006],[None],,,03,001,2024-11-28_01h16.36.517,experiment psycho,2024.1.5,None,2024-11-28 01h16.50.308581 +0530,
,,,,,,19,0,19,0,169.613663099939,,,,,,,,,,,,,169.5987710999325,169.613663099939,170.61230710009113,,,171.51202149991877,,['right'],0,[1.8863369999453425],[None],,,03,001,2024-11-28_01h16.36.517,experiment psycho,2024.1.5,None,2024-11-28 01h16.50.308581 +0530,
,,,,,,,,,,,,,,,,,,,,,,,,,,,,,,,,,,171.5130674999673,171.52733459998854,,,,,,,,
