delay,freq,condition,thisN,thisTrialN,thisRepN,key_resp.keys,key_resp.rt,key_resp.duration,textbox.text,button.numClicks,button.timesOn,button.timesOff,trials.thisRepN,trials.thisTrialN,trials.thisN,trials.thisIndex,thisRow.t,notes,trial.started,polygon.started,polygon_2.started,key_resp.started,polygon.stopped,trial.stopped,trials.key_resp.keys,trials.key_resp.rt,trials.key_resp.duration,beep.started,sound_1.started,sound_1.stopped,beep.stopped,response.started,text.started,textbox.started,button.started,response.stopped,trials.textbox.text,trials.button.numClicks,trials.button.timesOn,trials.button.timesOff,participant,session,date,expName,psychopyVersion,frameRate,expStart,
0.4,1000,exp,0,0,0,space,6.02991399995517,None,45,1,[8.938257900008466],[8.93826830002945],0,0,0,7,0.09235819999594241,,0.04120750003494322,0.09235819999594241,1.0069171999930404,1.0069171999930404,1.1063143000355922,7.141787700005807,space,6.02991399995517,None,7.142525600036606,7.556742666700544,7.888597700046375,7.858918200014159,7.859742000000551,7.888597700046375,7.888597700046375,7.888597700046375,16.827594500035048,45,1,[8.938257900008466],[8.93826830002945],874043,001,2024-11-14_12h00.52.057,6.0 Intentional Binding,2024.2.4,60.56656387108725,2024-11-14 12h01.04.102328 +0530,
0.1,1000,exp,1,1,0,space,0.9188062999746762,None,45,1,[1.887185400002636],[1.8871934000053443],0,1,1,3,16.83995130000403,,16.82786900002975,16.83995130000403,17.840136000013445,17.840136000013445,17.840136000013445,18.760371900047176,space,0.9188062999746762,None,18.761101000010967,18.87292226666274,19.20594820001861,19.176502800022718,19.176911999995355,19.20594820001861,19.20594820001861,19.20594820001861,21.09394130000146,45,1,[1.887185400002636],[1.8871934000053443],874043,001,2024-11-14_12h00.52.057,6.0 Intentional Binding,2024.2.4,60.56656387108725,2024-11-14 12h01.04.102328 +0530,
0.4,1000,exp,2,2,0,space,0.5410056000109762,None,56,1,[2.387181599973701],[2.3871893999748863],0,2,2,10,21.106449400016572,,21.09431970003061,21.106449400016572,22.10636090004118,22.10636090004118,22.10636090004118,22.660724800021853,space,0.5410056000109762,None,22.661408100044355,23.07307766669352,23.405663800018374,23.379339900042396,23.38003070000559,23.405663800018374,23.405663800018374,23.405663800018374,25.79354060004698,56,1,[2.387181599973701],[2.3871893999748863],874043,001,2024-11-14_12h00.52.057,6.0 Intentional Binding,2024.2.4,60.56656387108725,2024-11-14 12h01.04.102328 +0530,
0.7,1000,exp,3,3,0,space,0.3892605999717489,None,600,1,[1.8714447999955155],[1.8714559000218287],0,3,3,11,25.80640530004166,,25.79385459999321,25.80640530004166,26.805908900045324,26.805908900045324,26.805908900045324,27.210876299999654,space,0.3892605999717489,None,27.211732299998403,27.92323936667914,28.238457800005563,28.2223745000083,28.22277660004329,28.238457800005563,28.238457800005563,28.238457800005563,30.110627299989574,600,1,[1.8714447999955155],[1.8714559000218287],874043,001,2024-11-14_12h00.52.057,6.0 Intentional Binding,2024.2.4,60.56656387108725,2024-11-14 12h01.04.102328 +0530,
0.1,1000,exp,4,4,0,space,0.43619009997928515,None,500,1,[2.635493799985852],[2.6355015999870375],0,4,4,9,30.122947500029113,,30.110899100021925,30.122947500029113,31.12308710004436,31.12308710004436,31.12308710004436,31.561105100030545,space,0.43619009997928515,None,31.561778900038917,31.672730766706323,32.006299900007434,31.9771700000274,31.977626900014002,32.006299900007434,32.006299900007434,32.006299900007434,34.642454500019085,500,1,[2.635493799985852],[2.6355015999870375],874043,001,2024-11-14_12h00.52.057,6.0 Intentional Binding,2024.2.4,60.56656387108725,2024-11-14 12h01.04.102328 +0530,
0.4,400,unexp,5,5,0,space,0.4363811999792233,None,500,1,[1.9714157999842428],[1.9714232999831438],0,5,5,1,34.6556953000254,,34.64270010002656,34.6556953000254,35.655508399999235,35.655508399999235,35.655508399999235,36.10935610003071,space,0.4363811999792233,None,36.1100283000269,36.52260186669106,36.837586700043175,36.81973789999029,36.820243299996946,36.837586700043175,36.837586700043175,36.837586700043175,38.80987620004453,500,1,[1.9714157999842428],[1.9714232999831438],874043,001,2024-11-14_12h00.52.057,6.0 Intentional Binding,2024.2.4,60.56656387108725,2024-11-14 12h01.04.102328 +0530,
0.7,400,unexp,6,6,0,space,0.839547700015828,None,500,1,[2.5034702999982983],[2.503478200000245],0,6,6,2,38.821717000042554,,38.81021230004262,38.821717000042554,39.821929300029296,39.821929300029296,39.821929300029296,40.676366100029554,space,0.839547700015828,None,40.67715160001535,41.38936596666851,41.72189640003489,41.69453100004466,41.69494320004014,41.72189640003489,41.72189640003489,41.72189640003489,44.22612960002152,500,1,[2.5034702999982983],[2.503478200000245],874043,001,2024-11-14_12h00.52.057,6.0 Intentional Binding,2024.2.4,60.56656387108725,2024-11-14 12h01.04.102328 +0530,
0.1,400,unexp,7,7,0,space,0.6573665000032634,None,500,1,[1.9539844999671914],[1.9539937999797985],0,7,7,0,44.23828470002627,,44.226383200031705,44.23828470002627,45.23890550003853,45.23890550003853,45.23890550003853,45.90942580002593,space,0.6573665000032634,None,45.91007179999724,46.02177936665636,46.35500010004034,46.32405920000747,46.32448559999466,46.35500010004034,46.35500010004034,46.35500010004034,48.3097473999951,500,1,[1.9539844999671914],[1.9539937999797985],874043,001,2024-11-14_12h00.52.057,6.0 Intentional Binding,2024.2.4,60.56656387108725,2024-11-14 12h01.04.102328 +0530,
0.4,1000,exp,8,8,0,space,0.7622867000172846,None,560,1,[1.97157920000609],[1.971586900006514],0,8,8,4,48.32220340002095,,48.31005670002196,48.32220340002095,49.3223743000417,49.3223743000417,49.3223743000417,50.092574600013904,space,0.7622867000172846,None,50.0934178000316,50.50536536670212,50.820987300015986,50.80454510002164,50.80498070002068,50.820987300015986,50.820987300015986,50.820987300015986,52.79321830003755,560,1,[1.97157920000609],[1.971586900006514],874043,001,2024-11-14_12h00.52.057,6.0 Intentional Binding,2024.2.4,60.56656387108725,2024-11-14 12h01.04.102328 +0530,
0.1,1000,exp,9,9,0,space,0.738159500004258,None,600,1,[1.9377344999811612],[1.93774459999986],0,9,9,6,52.805100099998526,,52.79346160002751,52.805100099998526,53.8048861999996,53.8048861999996,53.8048861999996,54.55903579998994,space,0.738159500004258,None,54.559739299991634,54.67227386666151,55.00558430003002,54.9751571000088,54.97566970001208,55.00558430003002,55.00558430003002,55.00558430003002,56.94407830003183,600,1,[1.9377344999811612],[1.93774459999986],874043,001,2024-11-14_12h00.52.057,6.0 Intentional Binding,2024.2.4,60.56656387108725,2024-11-14 12h01.04.102328 +0530,
0.7,1000,exp,10,10,0,space,1.0703792999847792,None,56,1,[3.0047098000068218],[3.0047213999787346],0,10,10,8,56.95473530003801,,56.944377800042275,56.95473530003801,57.95549970003776,57.95549970003776,57.95549970003776,59.04236190003576,space,1.0703792999847792,None,59.04299370001536,59.75505896669735,60.07077180000488,60.05571450002026,60.05622130003758,60.07077180000488,60.07077180000488,60.07077180000488,63.07621570001356,56,1,[3.0047098000068218],[3.0047213999787346],874043,001,2024-11-14_12h00.52.057,6.0 Intentional Binding,2024.2.4,60.56656387108725,2024-11-14 12h01.04.102328 +0530,
0.7,1000,exp,11,11,0,space,0.5982005000114441,None,600,1,[2.1063807999598794],[2.106388699961826],0,11,11,5,63.088497399992775,,63.07652560004499,63.088497399992775,64.08944589999737,64.08944589999737,64.08944589999737,64.69256699999096,space,0.5982005000114441,None,64.69326150004053,65.4050543666856,65.72050950000994,65.70601920003537,65.70653570001014,65.72050950000994,65.72050950000994,65.72050950000994,67.8276421999908,600,1,[2.1063807999598794],[2.106388699961826],874043,001,2024-11-14_12h00.52.057,6.0 Intentional Binding,2024.2.4,60.56656387108725,2024-11-14 12h01.04.102328 +0530,
0.7,1000,exp,12,0,1,space,0.7797073000110686,None,450,1,[1.9868025000323541],[1.9868136000004597],1,0,12,5,67.83886570000323,,67.8279557999922,67.83886570000323,68.83814190002158,68.83814190002158,68.83814190002158,69.62547060003271,space,0.7797073000110686,None,69.62612490000902,70.33905126667038,70.67182769998908,70.64490170002682,70.64533550001215,70.67182769998908,70.67182769998908,70.67182769998908,72.65935760003049,450,1,[1.9868025000323541],[1.9868136000004597],874043,001,2024-11-14_12h00.52.057,6.0 Intentional Binding,2024.2.4,60.56656387108725,2024-11-14 12h01.04.102328 +0530,
0.7,1000,exp,13,1,1,space,1.06050049996702,None,300,1,[2.0371745000011288],[2.0371835999540053],1,1,13,11,72.671468799992,,72.65967160003493,72.671468799992,73.67169869999634,73.67169869999634,73.67169869999634,74.74241539998911,space,1.06050049996702,None,74.74304810003377,75.45567746670373,75.77053420001175,75.75450590002583,75.75491910002893,75.77053420001175,75.77053420001175,75.77053420001175,77.80840590002481,300,1,[2.0371745000011288],[2.0371835999540053],874043,001,2024-11-14_12h00.52.057,6.0 Intentional Binding,2024.2.4,60.56656387108725,2024-11-14 12h01.04.102328 +0530,
0.7,1000,exp,14,2,1,space,0.46055479999631643,None,300,1,[1.854530300013721],[1.8545377000118606],1,2,14,8,77.82168290001573,,77.80873590003466,77.82168290001573,78.82138149999082,78.82138149999082,78.82138149999082,79.29227750003338,space,0.46055479999631643,None,79.29296240000986,80.00536316668537,80.33741310000187,80.3092811999959,80.30970520002302,80.33741310000187,80.33741310000187,80.33741310000187,82.19272839999758,300,1,[1.854530300013721],[1.8545377000118606],874043,001,2024-11-14_12h00.52.057,6.0 Intentional Binding,2024.2.4,60.56656387108725,2024-11-14 12h01.04.102328 +0530,
0.1,1000,exp,15,3,1,space,0.48436629999196157,None,300,1,[1.672504099959042],[1.672514299978502],1,3,15,9,82.20519930002047,,82.1930916000274,82.20519930002047,83.20541900000535,83.20541900000535,83.20541900000535,83.69280489999801,space,0.48436629999196157,None,83.69355200004065,83.80570376670609,84.12054880004143,84.10664060001727,84.10705849999795,84.12054880004143,84.12054880004143,84.12054880004143,85.79418650001753,300,1,[1.672504099959042],[1.672514299978502],874043,001,2024-11-14_12h00.52.057,6.0 Intentional Binding,2024.2.4,60.56656387108725,2024-11-14 12h01.04.102328 +0530,
0.1,1000,exp,16,4,1,space,0.4507535999873653,None,500,1,[2.9555454999790527],[2.955555699998513],1,4,16,6,85.80522310000379,,85.79448850004701,85.80522310000379,86.80479349999223,86.80479349999223,86.80479349999223,87.26028119999683,space,0.4507535999873653,None,87.26094030000968,87.37117886665898,87.6866395000252,87.67156160000013,87.6719740999979,87.6866395000252,87.6866395000252,87.6866395000252,90.64292010001373,500,1,[2.9555454999790527],[2.955555699998513],874043,001,2024-11-14_12h00.52.057,6.0 Intentional Binding,2024.2.4,60.56656387108725,2024-11-14 12h01.04.102328 +0530,
0.4,1000,exp,17,5,1,space,0.7060135999927297,None,700,1,[3.087695900001563],[3.0877035000012256],1,5,17,4,90.65518450003583,,90.64317280001706,90.65518450003583,91.65468149998924,91.65468149998924,91.65468149998924,92.37500060000457,space,0.7060135999927297,None,92.37565270002233,92.7885452666708,93.10332900000503,93.08877840003697,93.08918770001037,93.10332900000503,93.10332900000503,93.10332900000503,96.19176380004501,700,1,[3.087695900001563],[3.0877035000012256],874043,001,2024-11-14_12h00.52.057,6.0 Intentional Binding,2024.2.4,60.56656387108725,2024-11-14 12h01.04.102328 +0530,
0.1,1000,exp,18,6,1,space,0.6430507000186481,None,700,1,[2.6222110000089742],[2.622221299970988],1,6,18,3,96.20460669999011,,96.19206400000257,96.20460669999011,97.2043956000125,97.2043956000125,97.2043956000125,97.85887240001466,space,0.6430507000186481,None,97.8595273999963,97.97136196669113,98.28685060003772,98.27255510003306,98.27298050001264,98.28685060003772,98.28685060003772,98.28685060003772,100.90983340004459,700,1,[2.6222110000089742],[2.622221299970988],874043,001,2024-11-14_12h00.52.057,6.0 Intentional Binding,2024.2.4,60.56656387108725,2024-11-14 12h01.04.102328 +0530,
0.1,400,unexp,19,7,1,space,0.5117195000057109,None,700,1,[2.804119599983096],[2.80412799998885],1,7,19,0,100.92129610001575,,100.91011029999936,100.92129610001575,101.92163060000166,101.92163060000166,101.92163060000166,102.44198730000062,space,0.5117195000057109,None,102.44282110000495,102.55430546671074,102.88732810004149,102.85961240000324,102.86003169999458,102.88732810004149,102.88732810004149,102.88732810004149,105.69237350003095,700,1,[2.804119599983096],[2.80412799998885],874043,001,2024-11-14_12h00.52.057,6.0 Intentional Binding,2024.2.4,60.56656387108725,2024-11-14 12h01.04.102328 +0530,
0.4,1000,exp,20,8,1,space,0.8100323000107892,None,700,1,[2.237979899975471],[2.237987299973611],1,8,20,7,105.7070398000069,,105.69267409999156,105.7070398000069,106.704951599997,106.704951599997,106.72126640001079,107.52648190001491,space,0.8100323000107892,None,107.52734910004074,107.93800516665603,108.25335210002959,108.2385268000071,108.23896879999666,108.25335210002959,108.25335210002959,108.25335210002959,110.49202520004474,700,1,[2.237979899975471],[2.237987299973611],874043,001,2024-11-14_12h00.52.057,6.0 Intentional Binding,2024.2.4,60.56656387108725,2024-11-14 12h01.04.102328 +0530,
0.7,400,unexp,21,9,1,space,0.3870388999930583,None,700,1,[4.0881375999888405],[4.088147900009062],1,9,21,2,110.50469279999379,,110.49226960004307,110.50469279999379,111.50435679999646,111.50435679999646,111.50435679999646,111.90890640002908,space,0.3870388999930583,None,111.90958340000361,112.6211472667094,112.93682360003004,112.92166900000302,112.92210850003175,112.93682360003004,112.93682360003004,112.93682360003004,117.02568780002184,700,1,[4.0881375999888405],[4.088147900009062],874043,001,2024-11-14_12h00.52.057,6.0 Intentional Binding,2024.2.4,60.56656387108725,2024-11-14 12h01.04.102328 +0530,
0.4,1000,exp,22,10,1,space,0.4405374000198208,None,500,1,[2.054671399993822],[2.054679099994246],1,10,22,10,117.04030390002299,,117.0259332000278,117.04030390002299,118.03782620001584,118.03782620001584,118.05404990003444,118.4918548000278,space,0.4405374000198208,None,118.49248680000892,118.90446866670779,119.23712750000414,119.20505260000937,119.20559700002195,119.23712750000414,119.23712750000414,119.23712750000414,121.29254130000481,500,1,[2.054671399993822],[2.054679099994246],874043,001,2024-11-14_12h00.52.057,6.0 Intentional Binding,2024.2.4,60.56656387108725,2024-11-14 12h01.04.102328 +0530,
0.4,400,unexp,23,11,1,space,0.3481612000032328,None,400,1,[1.588249199965503],[1.588256699964404],1,11,23,1,121.30497060000198,,121.29289370001061,121.30497060000198,122.30443720001495,122.30443720001495,122.30443720001495,122.65836800000397,space,0.3481612000032328,None,122.65904669999145,123.07104506669954,123.38679340004455,123.37212160002673,123.37256540003,123.38679340004455,123.38679340004455,123.38679340004455,124.97568940004567,400,1,[1.588249199965503],[1.588256699964404],874043,001,2024-11-14_12h00.52.057,6.0 Intentional Binding,2024.2.4,60.56656387108725,2024-11-14 12h01.04.102328 +0530,
0.4,1000,exp,24,0,2,space,1.3765601000050083,None,500,1,[2.0720308999880217],[2.0720383999869227],2,0,24,7,124.98775220004609,,124.9759312000242,124.98775220004609,125.9876854000031,125.9876854000031,125.9876854000031,127.37589570001,space,1.3765601000050083,None,127.3766830000095,127.78761706670436,128.10323250002693,128.08686470001703,128.08730420004576,128.10323250002693,128.10323250002693,128.10323250002693,130.1759474000428,500,1,[2.0720308999880217],[2.0720383999869227],874043,001,2024-11-14_12h00.52.057,6.0 Intentional Binding,2024.2.4,60.56656387108725,2024-11-14 12h01.04.102328 +0530,
0.1,1000,exp,25,1,2,space,0.419078900013119,None,300,1,[2.1041470000054687],[2.1041552000097],2,1,25,3,130.18782180000562,,130.17619770002784,130.18782180000562,131.18760589999147,131.18760589999147,131.18760589999147,131.6090308999992,space,0.419078900013119,None,131.60966380004538,131.72083346668322,132.03686470002867,132.0230159999919,132.0234219999984,132.03686470002867,132.03686470002867,132.03686470002867,134.14170480001485,300,1,[2.1041470000054687],[2.1041552000097],874043,001,2024-11-14_12h00.52.057,6.0 Intentional Binding,2024.2.4,60.56656387108725,2024-11-14 12h01.04.102328 +0530,
0.7,1000,exp,26,2,2,space,0.4672475999686867,None,250,1,[1.669765600003302],[1.6697782999835908],2,2,26,5,134.15474790002918,,134.14201330003561,134.15474790002918,135.15399270004127,135.15399270004127,135.15399270004127,135.62558440002613,space,0.4672475999686867,None,135.62651660002302,136.33725746669032,136.67174060002435,136.6420078999945,136.64241480000783,136.67174060002435,136.67174060002435,136.67174060002435,138.34232809999958,250,1,[1.669765600003302],[1.6697782999835908],874043,001,2024-11-14_12h00.52.057,6.0 Intentional Binding,2024.2.4,60.56656387108725,2024-11-14 12h01.04.102328 +0530,
0.4,1000,exp,27,3,2,space,0.5667096000397578,None,250,1,[2.038996200019028],[2.0390042000217363],2,3,27,4,138.35425319999922,,138.34258170000976,138.35425319999922,139.35389470000518,139.35389470000518,139.35389470000518,139.92563599999994,space,0.5667096000397578,None,139.92647770000622,140.3372251666772,140.67048560001422,140.64182090002578,140.64224860002287,140.67048560001422,140.67048560001422,140.67048560001422,142.71022150001954,250,1,[2.038996200019028],[2.0390042000217363],874043,001,2024-11-14_12h00.52.057,6.0 Intentional Binding,2024.2.4,60.56656387108725,2024-11-14 12h01.04.102328 +0530,
0.4,1000,exp,28,4,2,space,0.5038980999961495,None,250,1,[2.021337100013625],[2.0213445000117645],2,4,28,10,142.72131490003085,,142.71060690004379,142.72131490003085,143.72155860002385,143.72155860002385,143.72155860002385,144.2417477000272,space,0.5038980999961495,None,144.2424801000161,144.65433296666404,144.96941800002242,144.9548168000183,144.95524470001692,144.96941800002242,144.96941800002242,144.96941800002242,146.9914874000242,250,1,[2.021337100013625],[2.0213445000117645],874043,001,2024-11-14_12h00.52.057,6.0 Intentional Binding,2024.2.4,60.56656387108725,2024-11-14 12h01.04.102328 +0530,
0.4,400,unexp,29,5,2,space,0.6062214000266977,None,230,1,[1.938253199972678],[1.9382609999738634],2,5,29,1,147.00368940003682,,146.9917994000134,147.00368940003682,148.00454540003557,148.00454540003557,148.00454540003557,148.62540010001976,space,0.6062214000266977,None,148.62624980002875,149.03712596669018,149.3532556000282,149.3354850000469,149.3359383000061,149.3532556000282,149.3532556000282,149.3532556000282,151.29225890000816,230,1,[1.938253199972678],[1.9382609999738634],874043,001,2024-11-14_12h00.52.057,6.0 Intentional Binding,2024.2.4,60.56656387108725,2024-11-14 12h01.04.102328 +0530,
0.7,1000,exp,30,6,2,space,0.523258299974259,None,100,1,[1.55421849997947],[1.5542273999890313],2,6,30,11,151.30404080002336,,151.29256910004187,151.30404080002336,152.3039364000433,152.3039364000433,152.3039364000433,152.8408308000071,space,0.523258299974259,None,152.8416761000408,153.554136666706,153.88660480000544,153.8583458000212,153.85877700004494,153.88660480000544,153.88660480000544,153.88660480000544,155.4415108000394,100,1,[1.55421849997947],[1.5542273999890313],874043,001,2024-11-14_12h00.52.057,6.0 Intentional Binding,2024.2.4,60.56656387108725,2024-11-14 12h01.04.102328 +0530,
0.7,1000,exp,31,7,2,space,0.7010783000150695,None,100,1,[1.5874525000108406],[1.5874604000127874],2,7,31,8,155.4539422999951,,155.44182549999095,155.4539422999951,156.4538220000104,156.4538220000104,156.4538220000104,157.15869479998946,space,0.7010783000150695,None,157.15956110000843,157.87115336669765,158.2035850000102,158.17846780002583,158.17890550004086,158.2035850000102,158.2035850000102,158.2035850000102,159.79173840000294,100,1,[1.5874525000108406],[1.5874604000127874],874043,001,2024-11-14_12h00.52.057,6.0 Intentional Binding,2024.2.4,60.56656387108725,2024-11-14 12h01.04.102328 +0530,
0.1,1000,exp,32,8,2,space,0.5002655999851413,None,100,1,[1.8376332999905571],[1.8376425000024028],2,8,32,6,159.803569300042,,159.79198540002108,159.803569300042,160.8041821999941,160.8041821999941,160.8041821999941,161.3085436000256,space,0.5002655999851413,None,161.30919930001255,161.42070366669603,161.7364091000054,161.72013150004204,161.7205751000438,161.7364091000054,161.7364091000054,161.7364091000054,163.57489109999733,100,1,[1.8376332999905571],[1.8376425000024028],874043,001,2024-11-14_12h00.52.057,6.0 Intentional Binding,2024.2.4,60.56656387108725,2024-11-14 12h01.04.102328 +0530,
0.7,400,unexp,33,9,2,space,0.5019527999684215,None,100,1,[1.7064853999763727],[1.706493199977558],2,9,33,2,163.58722710004076,,163.57522820000304,163.58722710004076,164.5869670000393,164.5869670000393,164.5869670000393,165.09372190001886,space,0.5019527999684215,None,165.09452889999375,165.80378486670477,166.11925889999839,166.10404170001857,166.10445680003613,166.11925889999839,166.11925889999839,166.11925889999839,167.82656890002545,100,1,[1.7064853999763727],[1.706493199977558],874043,001,2024-11-14_12h00.52.057,6.0 Intentional Binding,2024.2.4,60.56656387108725,2024-11-14 12h01.04.102328 +0530,
0.1,400,unexp,34,10,2,space,0.4004739000229165,None,100,1,[1.7717339000082575],[1.7717439999687485],2,10,34,0,167.8369825000409,,167.8269472999964,167.8369825000409,168.83806249999907,168.83806249999907,168.83806249999907,169.24251499999082,space,0.4004739000229165,None,169.24314770003548,169.35403636668732,169.66942180000478,169.6563589000143,169.65681910002604,169.66942180000478,169.66942180000478,169.66942180000478,171.44189920002827,100,1,[1.7717339000082575],[1.7717439999687485],874043,001,2024-11-14_12h00.52.057,6.0 Intentional Binding,2024.2.4,60.56656387108725,2024-11-14 12h01.04.102328 +0530,
0.1,1000,exp,35,11,2,space,0.4535442999913357,None,100,1,[1.7039819000056013],[1.7039899000083096],2,11,35,9,171.453958099999,,171.44237530004466,171.453958099999,172.4543648000108,172.4543648000108,172.4543648000108,172.90934970002854,space,0.4535442999913357,None,172.91006090003066,173.01994386670802,173.35314429999562,173.32577130000573,173.32626420003362,173.35314429999562,173.35314429999562,173.35314429999562,175.05779290001374,100,1,[1.7039819000056013],[1.7039899000083096],874043,001,2024-11-14_12h00.52.057,6.0 Intentional Binding,2024.2.4,60.56656387108725,2024-11-14 12h01.04.102328 +0530,
0.7,1000,exp,36,0,3,space,0.44029730005422607,None,100,1,[1.5206471999990754],[1.5206548999994993],3,0,36,11,175.0715761000174,,175.05805520003196,175.0715761000174,176.07067440001993,176.07067440001993,176.07067440001993,176.52503600000637,space,0.44029730005422607,None,176.52603609999642,177.23690396669943,177.57100840000203,177.53925750002963,177.53970319998916,177.57100840000203,177.57100840000203,177.57100840000203,179.09236380003858,100,1,[1.5206471999990754],[1.5206548999994993],874043,001,2024-11-14_12h00.52.057,6.0 Intentional Binding,2024.2.4,60.56656387108725,2024-11-14 12h01.04.102328 +0530,
0.4,1000,exp,37,1,3,space,0.41141760000027716,None,340,1,[2.352872200019192],[2.3528820000356063],3,1,37,10,179.10387180000544,,179.09267350001028,179.10387180000544,180.10439950000728,180.10439950000728,180.10439950000728,180.52478229999542,space,0.41141760000027716,None,180.5257500000298,180.93724836665595,181.27001810004003,181.24073409999255,181.2411456000409,181.27001810004003,181.27001810004003,181.27001810004003,183.62381330004428,340,1,[2.352872200019192],[2.3528820000356063],874043,001,2024-11-14_12h00.52.057,6.0 Intentional Binding,2024.2.4,60.56656387108725,2024-11-14 12h01.04.102328 +0530,
0.1,1000,exp,38,2,3,space,0.4300191000220366,None,320,1,[1.9213148999842815],[1.921326300012879],3,2,38,6,183.63711920002243,,183.62438930000644,183.63711920002243,184.63687799999025,184.63687799999025,184.63687799999025,185.07536610000534,space,0.4300191000220366,None,185.0761438999907,185.1875196666845,185.50283810001565,185.4864927000017,185.48695700004464,185.50283810001565,185.50283810001565,185.50283810001565,187.42491280002287,320,1,[1.9213148999842815],[1.921326300012879],874043,001,2024-11-14_12h00.52.057,6.0 Intentional Binding,2024.2.4,60.56656387108725,2024-11-14 12h01.04.102328 +0530,
0.4,1000,exp,39,3,3,space,0.5990023000049405,None,230,1,[2.8705936000333168],[2.8706015000352636],3,3,39,4,187.43777720001526,,187.4252359000384,187.43777720001526,188.4373559000087,188.4373559000087,188.4373559000087,189.04212810000172,space,0.5990023000049405,None,189.04281020001508,189.453434166677,189.7696508000372,189.7529523000121,189.75336339999922,189.7696508000372,189.7696508000372,189.7696508000372,192.64103320002323,230,1,[2.8705936000333168],[2.8706015000352636],874043,001,2024-11-14_12h00.52.057,6.0 Intentional Binding,2024.2.4,60.56656387108725,2024-11-14 12h01.04.102328 +0530,
0.4,1000,exp,40,4,3,space,0.45425469998735934,None,230,1,[1.970476199989207],[1.9704866000101902],3,4,40,7,192.65437820000807,,192.64128260000143,192.65437820000807,193.65332219999982,193.65332219999982,193.65332219999982,194.10946820001118,space,0.45425469998735934,None,194.11012850003317,194.52020646667032,194.8360348000424,194.82002129999455,194.82046110002557,194.8360348000424,194.8360348000424,194.8360348000424,196.80733159999363,230,1,[1.970476199989207],[1.9704866000101902],874043,001,2024-11-14_12h00.52.057,6.0 Intentional Binding,2024.2.4,60.56656387108725,2024-11-14 12h01.04.102328 +0530,
0.7,400,unexp,41,5,3,space,0.5479013999574818,None,230,1,[2.203912800003309],[2.2039195999968797],3,5,41,2,196.82024800003273,,196.8076497000293,196.82024800003273,197.82188570004655,197.82188570004655,197.82188570004655,198.37483540002722,space,0.5479013999574818,None,198.37546810001368,199.08674256666953,199.40229110000655,199.38727669999935,199.3878830000176,199.40229110000655,199.40229110000655,199.40229110000655,201.60684369999217,230,1,[2.203912800003309],[2.2039195999968797],874043,001,2024-11-14_12h00.52.057,6.0 Intentional Binding,2024.2.4,60.56656387108725,2024-11-14 12h01.04.102328 +0530,
0.1,1000,exp,42,6,3,space,0.5368836999987252,None,800,1,[1.6548561999807134],[1.6548641999834217],3,6,42,3,201.61992190004094,,201.6071202000021,201.61992190004094,202.61986650002655,202.61986650002655,202.61986650002655,203.15862080000807,space,0.5368836999987252,None,203.1595030000317,203.2701801667029,203.58551880001323,203.57065549999243,203.57106340001337,203.58551880001323,203.58551880001323,203.58551880001323,205.24110510002356,800,1,[1.6548561999807134],[1.6548641999834217],874043,001,2024-11-14_12h00.52.057,6.0 Intentional Binding,2024.2.4,60.56656387108725,2024-11-14 12h01.04.102328 +0530,
0.1,1000,exp,43,7,3,space,0.38644199998816475,None,500,1,[2.0561571999569423],[2.056165099958889],3,7,43,9,205.25354569999035,,205.2413583000307,205.25354569999035,206.25399620004464,206.25399620004464,206.25399620004464,206.6572135000024,space,0.38644199998816475,None,206.65801080001984,206.77149516670423,207.1028462999966,207.07761259999825,207.0780510000186,207.1028462999966,207.1028462999966,207.1028462999966,209.15972870000405,500,1,[2.0561571999569423],[2.056165099958889],874043,001,2024-11-14_12h00.52.057,6.0 Intentional Binding,2024.2.4,60.56656387108725,2024-11-14 12h01.04.102328 +0530,
0.7,1000,exp,44,8,3,space,0.3005375999491662,None,500,1,[1.5031465000356548],[1.503154199977871],3,8,44,8,209.1701144000399,,209.16004789998988,209.1701144000399,210.17008070001611,210.17008070001611,210.17008070001611,210.47545060003176,space,0.3005375999491662,None,210.4763201000169,211.18699176668113,211.52099920000182,211.49229780002497,211.49271130003035,211.52099920000182,211.52099920000182,211.52099920000182,213.02483910002047,500,1,[1.5031465000356548],[1.503154199977871],874043,001,2024-11-14_12h00.52.057,6.0 Intentional Binding,2024.2.4,60.56656387108725,2024-11-14 12h01.04.102328 +0530,
0.4,400,unexp,45,9,3,space,0.365297099982854,None,600,1,[2.1376443000044674],[2.137654200021643],3,9,45,1,213.03721660003066,,213.02514310000697,213.03721660003066,214.03786189999664,214.03786189999664,214.03786189999664,214.40748940000776,space,0.365297099982854,None,214.40847630001372,214.81974786665913,215.1359651000239,215.11908380000386,215.11951170000248,215.1359651000239,215.1359651000239,215.1359651000239,217.27432770002633,600,1,[2.1376443000044674],[2.137654200021643],874043,001,2024-11-14_12h00.52.057,6.0 Intentional Binding,2024.2.4,60.56656387108725,2024-11-14 12h01.04.102328 +0530,
0.7,1000,exp,46,10,3,space,0.3477638000040315,None,600,1,[1.7534438000293449],[1.7534519000328146],3,10,46,5,217.2866897000349,,217.27463430003263,217.2866897000349,218.28705859999172,218.28705859999172,218.28705859999172,218.64108210004633,space,0.3477638000040315,None,218.64174650004134,219.3532669667077,219.669488500047,219.65258370002266,219.65330070001073,219.669488500047,219.669488500047,219.669488500047,221.42367950000335,600,1,[1.7534438000293449],[1.7534519000328146],874043,001,2024-11-14_12h00.52.057,6.0 Intentional Binding,2024.2.4,60.56656387108725,2024-11-14 12h01.04.102328 +0530,
0.1,400,unexp,47,11,3,space,0.3859916999936104,None,600,1,[2.5544556999811903],[2.5544634999823757],3,11,47,0,221.43640100001357,,221.42400860000635,221.43640100001357,222.4375194000313,222.4375194000313,222.4375194000313,222.82477930001915,space,0.3859916999936104,None,222.82562270003837,222.93768156669492,223.26883870002348,223.24029950000113,223.24074400000973,223.26883870002348,223.26883870002348,223.26883870002348,225.8240307000233,600,1,[2.5544556999811903],[2.5544634999823757],874043,001,2024-11-14_12h00.52.057,6.0 Intentional Binding,2024.2.4,60.56656387108725,2024-11-14 12h01.04.102328 +0530,
0.7,1000,exp,48,0,4,space,0.3687122000264935,None,400,1,[1.6874731999705546],[1.6874819999793544],4,0,48,11,225.83710780000547,,225.82436070003314,225.83710780000547,226.83662890002597,226.83662890002597,226.83662890002597,227.20857190003153,space,0.3687122000264935,None,227.20921810000436,227.9202607666996,228.2353676999919,228.22071600001073,228.2211236000294,228.2353676999919,228.2353676999919,228.2353676999919,229.92354570003226,400,1,[1.6874731999705546],[1.6874819999793544],874043,001,2024-11-14_12h00.52.057,6.0 Intentional Binding,2024.2.4,60.56656387108725,2024-11-14 12h01.04.102328 +0530,
0.1,1000,exp,49,1,4,space,0.5097278000321239,None,500,1,[1.7048898999928497],[1.7048974999925122],4,1,49,6,229.93649260001257,,229.92385469999863,229.93649260001257,230.93669220001902,230.93669220001902,230.93669220001902,231.45714220002992,space,0.5097278000321239,None,231.457796600007,231.5698110666747,231.88552440004423,231.87036820000503,231.87081079999916,231.88552440004423,231.88552440004423,231.88552440004423,233.59115200000815,500,1,[1.7048898999928497],[1.7048974999925122],874043,001,2024-11-14_12h00.52.057,6.0 Intentional Binding,2024.2.4,60.56656387108725,2024-11-14 12h01.04.102328 +0530,
0.4,1000,exp,50,2,4,space,0.41408710001269355,None,500,1,[2.0045522000291385],[2.0045606000348926],4,2,50,7,233.60318130004453,,233.591461300035,233.60318130004453,234.60296980000567,234.60296980000567,234.60296980000567,235.02407690003747,space,0.41408710001269355,None,235.02474650001386,235.43633526668808,235.7520405999967,235.73834790004184,235.73875180003233,235.7520405999967,235.7520405999967,235.7520405999967,237.7572881000233,500,1,[2.0045522000291385],[2.0045606000348926],874043,001,2024-11-14_12h00.52.057,6.0 Intentional Binding,2024.2.4,60.56656387108725,2024-11-14 12h01.04.102328 +0530,
0.4,400,unexp,51,3,4,space,0.5210204000468366,None,670,1,[1.7530154999694787],[1.7530237999744713],4,3,51,1,237.77013110002736,,237.75759550003568,237.77013110002736,238.77007060003234,238.77007060003234,238.77007060003234,239.30782320001163,space,0.5210204000468366,None,239.30866939999396,239.72007686668465,240.05448480002815,240.02654960000655,240.0269541000016,240.05448480002815,240.05448480002815,240.05448480002815,241.80827640002826,670,1,[1.7530154999694787],[1.7530237999744713],874043,001,2024-11-14_12h00.52.057,6.0 Intentional Binding,2024.2.4,60.56656387108725,2024-11-14 12h01.04.102328 +0530,
0.4,1000,exp,52,4,4,space,0.34846339997602627,None,700,1,[1.7888835000339895],[1.788893699995242],4,4,52,10,241.82010790001368,,241.8086106000119,241.82010790001368,242.81976109999232,242.81976109999232,242.81976109999232,243.17476640001405,space,0.34846339997602627,None,243.17554960004054,243.58619766671134,243.90173330000835,243.88804839999648,243.8884534999961,243.90173330000835,243.90173330000835,243.90173330000835,245.69131070002913,700,1,[1.7888835000339895],[1.788893699995242],874043,001,2024-11-14_12h00.52.057,6.0 Intentional Binding,2024.2.4,60.56656387108725,2024-11-14 12h01.04.102328 +0530,
0.1,1000,exp,53,5,4,space,0.37032430002000183,None,450,1,[1.7544796000001952],[1.7544873000006191],4,5,53,9,245.70284760004142,,245.69158959999913,245.70284760004142,246.70308020000812,246.70308020000812,246.70308020000812,247.0900298000197,space,0.37032430002000183,None,247.0908911000006,247.20279986667836,247.5185636000242,247.5040845000185,247.50452170002973,247.5185636000242,247.5185636000242,247.5185636000242,249.27376960002584,450,1,[1.7544796000001952],[1.7544873000006191],874043,001,2024-11-14_12h00.52.057,6.0 Intentional Binding,2024.2.4,60.56656387108725,2024-11-14 12h01.04.102328 +0530,
0.7,1000,exp,54,6,4,space,0.2237656000070274,None,350,1,[1.6547415999812074],[1.654750099987723],4,6,54,8,249.28709840000374,,249.27410919999238,249.28709840000374,250.28643650002778,250.28643650002778,250.30325250001624,250.52425970003242,space,0.2237656000070274,None,250.52500120003242,251.23624546669114,251.55254870001227,251.53630340000382,251.53673510003136,251.55254870001227,251.55254870001227,251.55254870001227,253.20805489999475,350,1,[1.6547415999812074],[1.654750099987723],874043,001,2024-11-14_12h00.52.057,6.0 Intentional Binding,2024.2.4,60.56656387108725,2024-11-14 12h01.04.102328 +0530,
0.1,400,unexp,55,7,4,space,0.36311550001846626,None,450,1,[1.9719493000302464],[1.9719580000382848],4,7,55,0,253.21982200001366,,253.20836049999343,253.21982200001366,254.22012499999255,254.22012499999255,254.22012499999255,254.5911502999952,space,0.36311550001846626,None,254.5918023000122,254.70347176667227,255.01847000000998,255.0033694000449,255.00380649999715,255.01847000000998,255.01847000000998,255.01847000000998,256.99117680004565,450,1,[1.9719493000302464],[1.9719580000382848],874043,001,2024-11-14_12h00.52.057,6.0 Intentional Binding,2024.2.4,60.56656387108725,2024-11-14 12h01.04.102328 +0530,
0.1,1000,exp,56,8,4,space,0.28382210002746433,None,560,1,[2.0723814999801107],[2.0723891999805346],4,8,56,3,257.0029541000258,,256.9914406000171,257.0029541000258,258.00271550001344,258.00271550001344,258.00271550001344,258.29139690002194,space,0.28382210002746433,None,258.29224159999285,258.4033340666831,258.71838150004623,258.70459780003875,258.7050007000216,258.71838150004623,258.71838150004623,258.71838150004623,260.79152700002305,560,1,[2.0723814999801107],[2.0723891999805346],874043,001,2024-11-14_12h00.52.057,6.0 Intentional Binding,2024.2.4,60.56656387108725,2024-11-14 12h01.04.102328 +0530,
0.7,1000,exp,57,9,4,space,0.2993626999668777,None,60,1,[1.8881755999755114],[1.8881828999728896],4,9,57,5,260.8033367000171,,260.7917858000146,260.8033367000171,261.80315049999626,261.80315049999626,261.80315049999626,262.1073655000073,space,0.2993626999668777,None,262.10804190003546,262.81945616670805,263.1353084000293,263.1208382000332,263.12134920002427,263.1353084000293,263.1353084000293,263.1353084000293,265.02419440000085,60,1,[1.8881755999755114],[1.8881828999728896],874043,001,2024-11-14_12h00.52.057,6.0 Intentional Binding,2024.2.4,60.56656387108725,2024-11-14 12h01.04.102328 +0530,
0.4,1000,exp,58,10,4,space,0.2789634999935515,None,590,1,[1.721182500012219],[1.7211901000118814],4,10,58,4,265.0367886000313,,265.0244789000135,265.0367886000313,266.0363141000271,266.0363141000271,266.0363141000271,266.3238743999973,space,0.2789634999935515,None,266.3248208000441,266.7360998666884,267.0516472000163,267.0354339000187,267.03586060000816,267.0516472000163,267.0516472000163,267.0516472000163,268.7735148000065,590,1,[1.721182500012219],[1.7211901000118814],874043,001,2024-11-14_12h00.52.057,6.0 Intentional Binding,2024.2.4,60.56656387108725,2024-11-14 12h01.04.102328 +0530,
0.7,400,unexp,59,11,4,space,0.2661818999913521,None,120,1,[1.6547122999909334],[1.6547226999537088],4,11,59,2,268.786511000013,,268.7738491999917,268.786511000013,269.78576020000037,269.78576020000037,269.78576020000037,270.0575042000273,space,0.2661818999913521,None,270.05823140003486,270.7695298666988,271.0850514000049,271.06762760004494,271.06804410001496,271.0850514000049,271.0850514000049,271.0850514000049,272.74050489999354,120,1,[1.6547122999909334],[1.6547226999537088],874043,001,2024-11-14_12h00.52.057,6.0 Intentional Binding,2024.2.4,60.56656387108725,2024-11-14 12h01.04.102328 +0530,
0.1,1000,exp,60,0,5,space,0.35444289998849854,None,120,1,[2.1050823999685235],[2.105093299993314],5,0,60,6,272.75347200001124,,272.74082230002386,272.75347200001124,273.75258140004007,273.75258140004007,273.75258140004007,274.1229082000209,space,0.35444289998849854,None,274.1235573000158,274.2358001666764,274.5516562000266,274.5362444000202,274.53664980002213,274.5516562000266,274.5516562000266,274.5516562000266,276.65748610004084,120,1,[2.1050823999685235],[2.105093299993314],874043,001,2024-11-14_12h00.52.057,6.0 Intentional Binding,2024.2.4,60.56656387108725,2024-11-14 12h01.04.102328 +0530,
0.4,1000,exp,61,1,5,space,0.2399176000035368,None,230,1,[1.920174099970609],[1.9201851999969222],5,1,61,4,276.6698939999915,,276.6577940999996,276.6698939999915,277.66989560000366,277.66989560000366,277.66989560000366,277.9235511000152,space,0.2399176000035368,None,277.9244031000417,278.3361903666557,278.66868629999226,278.64123599999584,278.6416366000194,278.66868629999226,278.66868629999226,278.66868629999226,280.58959210000467,230,1,[1.920174099970609],[1.9201851999969222],874043,001,2024-11-14_12h00.52.057,6.0 Intentional Binding,2024.2.4,60.56656387108725,2024-11-14 12h01.04.102328 +0530,
0.1,400,unexp,62,2,5,space,0.4586958999861963,None,560,1,[2.35401459998684],[2.354022099985741],5,2,62,0,280.60313520004274,,280.58990210003685,280.60313520004274,281.60277560004033,281.60277560004033,281.60277560004033,282.0737355000456,space,0.4586958999861963,None,282.0743851000443,282.1863744666955,282.5184289000463,282.49189480004134,282.4923010999919,282.5184289000463,282.5184289000463,282.5184289000463,284.87319780001417,560,1,[2.35401459998684],[2.354022099985741],874043,001,2024-11-14_12h00.52.057,6.0 Intentional Binding,2024.2.4,60.56656387108725,2024-11-14 12h01.04.102328 +0530,
0.4,1000,exp,63,3,5,space,0.07488960004411638,None,450,1,[3.5537846999941394],[3.553792599996086],5,3,63,10,284.88628790003713,,284.8735619999934,284.88628790003713,285.8861729000346,285.8861729000346,285.8861729000346,285.9733853000216,space,0.07488960004411638,None,285.97423769999295,286.38657336670826,286.70185579999816,286.6843515000073,286.6851208000444,286.70185579999816,286.70185579999816,286.70185579999816,290.2563238000148,450,1,[3.5537846999941394],[3.553792599996086],874043,001,2024-11-14_12h00.52.057,6.0 Intentional Binding,2024.2.4,60.56656387108725,2024-11-14 12h01.04.102328 +0530,
0.1,1000,exp,64,4,5,space,0.4111941999872215,None,560,1,[2.355185899999924],[2.3551932999980636],5,4,64,3,290.26932340004714,,290.2565918000182,290.26932340004714,291.27002250001533,291.27002250001533,291.27002250001533,291.6904874999891,space,0.4111941999872215,None,291.69138030003523,291.8023071666869,292.118002000032,292.10305650002556,292.1034820000059,292.118002000032,292.118002000032,292.118002000032,294.4739297000342,560,1,[2.355185899999924],[2.3551932999980636],874043,001,2024-11-14_12h00.52.057,6.0 Intentional Binding,2024.2.4,60.56656387108725,2024-11-14 12h01.04.102328 +0530,
0.7,1000,exp,65,5,5,space,0.24009779997868463,None,456,1,[1.971913899993524],[1.971921399992425],5,5,65,8,294.4866536000045,,294.4742316000047,294.4866536000045,295.4859964000061,295.4859964000061,295.4859964000061,295.7400191000197,space,0.24009779997868463,None,295.74091049999697,296.4523267666848,296.76787550002337,296.75391230004607,296.75431730004493,296.76787550002337,296.76787550002337,296.76787550002337,298.74055069999304,456,1,[1.971913899993524],[1.971921399992425],874043,001,2024-11-14_12h00.52.057,6.0 Intentional Binding,2024.2.4,60.56656387108725,2024-11-14 12h01.04.102328 +0530,
0.4,1000,exp,66,6,5,space,0.743602300004568,None,567,1,[2.5527940000174567],[2.552801600017119],5,6,66,7,298.75248810002813,,298.74085619999096,298.75248810002813,299.75285099999746,299.75285099999746,299.75285099999746,300.5065020000329,space,0.743602300004568,None,300.50738570000976,300.91960706666964,301.2533684000373,301.223140600021,301.22354999999516,301.2533684000373,301.2533684000373,301.2533684000373,303.80685160000576,567,1,[2.5527940000174567],[2.552801600017119],874043,001,2024-11-14_12h00.52.057,6.0 Intentional Binding,2024.2.4,60.56656387108725,2024-11-14 12h01.04.102328 +0530,
0.7,1000,exp,67,7,5,space,0.37314179999521,None,780,1,[1.6544614000013098],[1.6544690000009723],5,7,67,11,303.81957400002284,,303.8070934000425,303.81957400002284,304.8189477000269,304.8189477000269,304.8189477000269,305.20640680001816,space,0.37314179999521,None,305.20727670000633,305.91865286667985,306.23449490003986,306.2192113000201,306.2196291,306.23449490003986,306.23449490003986,306.23449490003986,307.8897247000132,780,1,[1.6544614000013098],[1.6544690000009723],874043,001,2024-11-14_12h00.52.057,6.0 Intentional Binding,2024.2.4,60.56656387108725,2024-11-14 12h01.04.102328 +0530,
0.4,400,unexp,68,8,5,space,0.33570239995606244,None,780,1,[1.8216788000427186],[1.8216862000408582],5,8,68,1,307.90315289999126,,307.8900007000193,307.90315289999126,308.90186370001175,308.90186370001175,308.9188153000432,309.24021429999266,space,0.33570239995606244,None,309.2410517000244,309.65244546666895,309.9683051999891,309.95307470002444,309.9534813000355,309.9683051999891,309.9683051999891,309.9683051999891,311.79069240001263,780,1,[1.8216788000427186],[1.8216862000408582],874043,001,2024-11-14_12h00.52.057,6.0 Intentional Binding,2024.2.4,60.56656387108725,2024-11-14 12h01.04.102328 +0530,
0.7,400,unexp,69,9,5,space,0.40374530002009124,None,567,1,[1.7710721000330523],[1.7710797000327148],5,9,69,2,311.8027748000459,,311.7909916000208,311.8027748000459,312.80225559999235,312.80225559999235,312.80225559999235,313.20738610002445,space,0.40374530002009124,None,313.2080638000043,313.9185763666794,314.2350821000291,314.2193176000146,314.21983910002746,314.2350821000291,314.2350821000291,314.2350821000291,316.00688430003356,567,1,[1.7710721000330523],[1.7710797000327148],874043,001,2024-11-14_12h00.52.057,6.0 Intentional Binding,2024.2.4,60.56656387108725,2024-11-14 12h01.04.102328 +0530,
0.1,1000,exp,70,10,5,space,0.2810256999800913,None,900,1,[2.06863739999244],[2.0686470000073314],5,10,70,9,316.0187586999964,,316.00714870000957,316.0187586999964,317.01873740000883,317.01873740000883,317.01873740000883,317.3059584000148,space,0.2810256999800913,None,317.3066111000371,317.41885446670153,317.7531754000229,317.72508679999737,317.72552850004286,317.7531754000229,317.7531754000229,317.7531754000229,319.8225061999983,900,1,[2.06863739999244],[2.0686470000073314],874043,001,2024-11-14_12h00.52.057,6.0 Intentional Binding,2024.2.4,60.56656387108725,2024-11-14 12h01.04.102328 +0530,
0.7,1000,exp,71,11,5,space,0.24277969996910542,None,800,1,[1.8880785999936052],[1.8880886000115424],5,11,71,5,319.83625819999725,,319.82297179999296,319.83625819999725,320.83555439999327,320.83555439999327,320.83555439999327,321.0897922000149,space,0.24277969996910542,None,321.0906224999926,321.80291016668,322.13503250002395,322.10927860002266,322.10969730000943,322.13503250002395,322.13503250002395,322.13503250002395,324.02380630001426,800,1,[1.8880785999936052],[1.8880886000115424],874043,001,2024-11-14_12h00.52.057,6.0 Intentional Binding,2024.2.4,60.56656387108725,2024-11-14 12h01.04.102328 +0530,
0.7,1000,exp,72,0,6,space,0.26510610000696033,None,987,1,[2.153553500014823],[2.1535611000144854],6,0,72,5,324.03572189999977,,324.02406890003476,324.03572189999977,325.0361462000292,325.0361462000292,325.0361462000292,325.3068198999972,space,0.26510610000696033,None,325.30766009999206,326.0186897667047,326.35264490003465,326.32329990004655,326.32371930003865,326.35264490003465,326.35264490003465,326.35264490003465,328.50691669998923,987,1,[2.153553500014823],[2.1535611000144854],874043,001,2024-11-14_12h00.52.057,6.0 Intentional Binding,2024.2.4,60.56656387108725,2024-11-14 12h01.04.102328 +0530,
0.4,1000,exp,73,1,6,space,0.1933378999819979,None,450,1,[2.003164399997331],[2.0031747999601066],6,1,73,10,328.5189892000053,,328.5071587000275,328.5189892000053,329.5195509000332,329.5195509000332,329.5195509000332,329.72303600003943,space,0.1933378999819979,None,329.72383259999333,330.1353530666713,330.469287600019,330.44015410001157,330.440561800031,330.469287600019,330.469287600019,330.469287600019,332.47320460004266,450,1,[2.003164399997331],[2.0031747999601066],874043,001,2024-11-14_12h00.52.057,6.0 Intentional Binding,2024.2.4,60.56656387108725,2024-11-14 12h01.04.102328 +0530,
0.1,1000,exp,74,2,6,space,0.3003412000252865,None,456,1,[2.1885643000132404],[2.188577199995052],6,2,74,6,332.4858216000139,,332.4735065000132,332.4858216000139,333.4850640000077,333.4850640000077,333.4850640000077,333.7898630000418,space,0.3003412000252865,None,333.79080980003346,333.9023219666599,334.23444940004265,334.2057126000291,334.2061200000462,334.23444940004265,334.23444940004265,334.23444940004265,336.4239394000033,456,1,[2.1885643000132404],[2.188577199995052],874043,001,2024-11-14_12h00.52.057,6.0 Intentional Binding,2024.2.4,60.56656387108725,2024-11-14 12h01.04.102328 +0530,
0.4,1000,exp,75,3,6,space,0.3394109000219032,None,340,1,[2.371287800022401],[2.37129860004643],6,3,75,4,336.4355388000258,,336.42430559999775,336.4355388000258,337.435477800027,337.435477800027,337.435477800027,337.78911459998926,space,0.3394109000219032,None,337.789775000012,338.20204356668205,338.5349743000115,338.50459950004006,338.50511980004376,338.5349743000115,338.5349743000115,338.5349743000115,340.90698080003494,340,1,[2.371287800022401],[2.37129860004643],874043,001,2024-11-14_12h00.52.057,6.0 Intentional Binding,2024.2.4,60.56656387108725,2024-11-14 12h01.04.102328 +0530,
0.7,1000,exp,76,4,6,space,0.5860858000232838,None,457,1,[1.9059329999727197],[1.9059433999937028],6,4,76,11,340.9190227999934,,340.90731500001857,340.9190227999934,341.9181789000286,341.9181789000286,341.9181789000286,342.5072529000463,space,0.5860858000232838,None,342.5080336999963,343.2185749666571,343.5345356000471,343.51827580004465,343.5188029000419,343.5345356000471,343.5345356000471,343.5345356000471,345.44122410001,457,1,[1.9059329999727197],[1.9059433999937028],874043,001,2024-11-14_12h00.52.057,6.0 Intentional Binding,2024.2.4,60.56656387108725,2024-11-14 12h01.04.102328 +0530,
0.1,400,unexp,77,5,6,space,0.5085385999991558,None,234,1,[3.321422800014261],[3.3214302000124007],6,5,77,0,345.4523392000119,,345.44152570003644,345.4523392000119,346.45206460001646,346.45206460001646,346.45206460001646,346.97242460004054,space,0.5085385999991558,None,346.9733271000441,347.0854413666568,347.418398800015,347.39013310003793,347.3905598000274,347.418398800015,347.418398800015,347.418398800015,350.74055019998923,234,1,[3.321422800014261],[3.3214302000124007],874043,001,2024-11-14_12h00.52.057,6.0 Intentional Binding,2024.2.4,60.56656387108725,2024-11-14 12h01.04.102328 +0530,
0.4,400,unexp,78,6,6,space,0.3284464000025764,None,800,1,[1.7363128999713808],[1.7363206999725662],6,6,78,1,350.752407699998,,350.74085310002556,350.752407699998,351.75193930004025,351.75193930004025,351.75193930004025,352.0891126000206,space,0.3284464000025764,None,352.0899594000075,352.5018337667027,352.8352513000136,352.8091319000232,352.8096651000087,352.8352513000136,352.8352513000136,352.8352513000136,354.5722985000466,800,1,[1.7363128999713808],[1.7363206999725662],874043,001,2024-11-14_12h00.52.057,6.0 Intentional Binding,2024.2.4,60.56656387108725,2024-11-14 12h01.04.102328 +0530,
0.7,1000,exp,79,7,6,space,0.46622040000511333,None,569,1,[1.920029999979306],[1.9200372999766842],6,7,79,8,354.58548559999326,,354.5725466000149,354.58548559999326,355.58495420002146,355.58495420002146,355.58495420002146,356.0563557000132,space,0.46622040000511333,None,356.057024800044,356.76861796668186,357.1014548999956,357.0757522000349,357.076315000013,357.1014548999956,357.1014548999956,357.1014548999956,359.02226070000324,569,1,[1.920029999979306],[1.9200372999766842],874043,001,2024-11-14_12h00.52.057,6.0 Intentional Binding,2024.2.4,60.56656387108725,2024-11-14 12h01.04.102328 +0530,
0.1,1000,exp,80,8,6,space,0.2325929999933578,None,700,1,[2.320982000033837],[2.320992599998135],6,8,80,3,359.0354593000375,,359.022569200024,359.0354593000375,360.0350408999948,360.0350408999948,360.0350408999948,360.2724031000398,space,0.2325929999933578,None,360.2730880000163,360.38546266669096,360.71734870004,360.69193309999537,360.6923702000058,360.71734870004,360.71734870004,360.71734870004,363.03902070003096,700,1,[2.320982000033837],[2.320992599998135],874043,001,2024-11-14_12h00.52.057,6.0 Intentional Binding,2024.2.4,60.56656387108725,2024-11-14 12h01.04.102328 +0530,
0.7,400,unexp,81,9,6,space,0.23854739998932928,None,670,1,[1.4541660000104457],[1.4541757999686524],6,9,81,2,363.0522281000158,,363.0392892000382,363.0522281000158,364.0513983000419,364.0513983000419,364.0513983000419,364.30604540003696,space,0.23854739998932928,None,364.3068939000368,365.0190763666799,365.3514080000459,365.3214749000035,365.32190020004055,365.3514080000459,365.3514080000459,365.3514080000459,366.8063094000099,670,1,[1.4541660000104457],[1.4541757999686524],874043,001,2024-11-14_12h00.52.057,6.0 Intentional Binding,2024.2.4,60.56656387108725,2024-11-14 12h01.04.102328 +0530,
0.4,1000,exp,82,10,6,space,0.6110464000375941,None,567,1,[3.2551448000012897],[3.2551525000017136],6,10,82,7,366.8182478999952,,366.8065718000289,366.8182478999952,367.81848060002085,367.81848060002085,367.81848060002085,368.43869290000293,space,0.6110464000375941,None,368.4395637999987,368.8513142666818,369.16763280000305,369.1509723000345,369.15139360004105,369.16763280000305,369.16763280000305,369.16763280000305,372.4235210000188,567,1,[3.2551448000012897],[3.2551525000017136],874043,001,2024-11-14_12h00.52.057,6.0 Intentional Binding,2024.2.4,60.56656387108725,2024-11-14 12h01.04.102328 +0530,
0.1,1000,exp,83,11,6,space,0.3858246000017971,None,678,1,[2.4039044000091963],[2.403914399968926],6,11,83,9,372.437012600014,,372.42376640002476,372.437012600014,373.4345836000284,373.4345836000284,373.45178030000534,373.82393770001363,space,0.3858246000017971,None,373.82462840003427,373.93525606667777,374.26757020002697,374.2390626000124,374.2395100000431,374.26757020002697,374.26757020002697,374.26757020002697,376.67223630001536,678,1,[2.4039044000091963],[2.403914399968926],874043,001,2024-11-14_12h00.52.057,6.0 Intentional Binding,2024.2.4,60.56656387108725,2024-11-14 12h01.04.102328 +0530,
0.1,1000,exp,84,0,7,space,0.23000679997494444,None,100,1,[1.8391191000118852],[1.8391287999693304],7,0,84,9,376.6847428000183,,376.67253380001057,376.6847428000183,377.6849224999896,377.6849224999896,377.6849224999896,377.923154100019,space,0.23000679997494444,None,377.923814400041,378.0349403666953,378.35037380002905,378.3351287000114,378.33554070000537,378.35037380002905,378.35037380002905,378.35037380002905,380.19032360002166,100,1,[1.8391191000118852],[1.8391287999693304],874043,001,2024-11-14_12h00.52.057,6.0 Intentional Binding,2024.2.4,60.56656387108725,2024-11-14 12h01.04.102328 +0530,
0.7,1000,exp,85,1,7,space,0.36804339999798685,None,340,1,[3.1366390000330284],[3.136646600032691],7,1,85,8,380.2019657000201,,380.19072830001824,380.2019657000201,381.2019599000341,381.2019599000341,381.2019599000341,381.5726340000401,space,0.36804339999798685,None,381.5733042000211,382.2852244667049,382.6186798000126,382.5912890000036,382.59171450004214,382.6186798000126,382.6186798000126,382.6186798000126,385.755990100035,340,1,[3.1366390000330284],[3.136646600032691],874043,001,2024-11-14_12h00.52.057,6.0 Intentional Binding,2024.2.4,60.56656387108725,2024-11-14 12h01.04.102328 +0530,
0.4,400,unexp,86,2,7,space,0.7546403000014834,None,560,1,[1.8867783999885432],[1.8867860999889672],7,2,86,1,385.76906210003654,,385.7562330000219,385.76906210003654,386.7681574000162,386.7681574000162,386.7681574000162,387.538827100012,space,0.7546403000014834,None,387.5394662999897,387.95157056668927,388.2844962000381,388.2557807000121,388.2564071000088,388.2844962000381,388.2844962000381,388.2844962000381,390.17197660001693,560,1,[1.8867783999885432],[1.8867860999889672],874043,001,2024-11-14_12h00.52.057,6.0 Intentional Binding,2024.2.4,60.56656387108725,2024-11-14 12h01.04.102328 +0530,
0.4,1000,exp,87,3,7,space,0.3376541000325233,None,670,1,[2.354140599956736],[2.3541488999617286],7,3,87,7,390.18490670004394,,390.17227850004565,390.18490670004394,391.1844059000141,391.1844059000141,391.1844059000141,391.53880810004193,space,0.3376541000325233,None,391.53946080000605,391.9512964666976,392.28516359999776,392.25590940000257,392.2563591999933,392.28516359999776,392.28516359999776,392.28516359999776,394.64002769999206,670,1,[2.354140599956736],[2.3541488999617286],874043,001,2024-11-14_12h00.52.057,6.0 Intentional Binding,2024.2.4,60.56656387108725,2024-11-14 12h01.04.102328 +0530,
0.7,400,unexp,88,4,7,space,0.44653170002857223,None,700,1,[2.420950300002005],[2.4209579000016674],7,4,88,2,394.65142130001914,,394.64033540000673,394.65142130001914,395.65121710003586,395.65121710003586,395.65121710003586,396.1047537000268,space,0.44653170002857223,None,396.1056271000416,396.8177466666714,397.1334771999973,397.1199414000148,397.12036790000275,397.1334771999973,397.1334771999973,397.1334771999973,399.5551405000151,700,1,[2.420950300002005],[2.4209579000016674],874043,001,2024-11-14_12h00.52.057,6.0 Intentional Binding,2024.2.4,60.56656387108725,2024-11-14 12h01.04.102328 +0530,
0.4,1000,exp,89,5,7,space,0.321246900013648,None,500,1,[2.436454300011974],[2.436464199970942],7,5,89,10,399.56788550002966,,399.55544860003283,399.56788550002966,400.56838900002185,400.56838900002185,400.56838900002185,400.9052500000107,space,0.321246900013648,None,400.9059116000426,401.31786886667055,401.6512881999952,401.62134469999,401.62178029998904,401.6512881999952,401.6512881999952,401.6512881999952,404.0885248000268,500,1,[2.436454300011974],[2.436464199970942],874043,001,2024-11-14_12h00.52.057,6.0 Intentional Binding,2024.2.4,60.56656387108725,2024-11-14 12h01.04.102328 +0530,
0.1,1000,exp,90,6,7,space,0.3858382999897003,None,680,1,[3.305002900015097],[3.3050102000124753],7,6,90,6,404.1012215000228,,404.0888208000106,404.1012215000228,405.10115570004564,405.10115570004564,405.10115570004564,405.4892844000133,space,0.3858382999897003,None,405.49012450000737,405.60084536666204,405.9166570000234,405.90135370002827,405.9017670000321,405.9166570000234,405.9166570000234,405.9166570000234,409.2224835000234,680,1,[3.305002900015097],[3.3050102000124753],874043,001,2024-11-14_12h00.52.057,6.0 Intentional Binding,2024.2.4,60.56656387108725,2024-11-14 12h01.04.102328 +0530,
0.1,400,unexp,91,7,7,space,0.28226840001298115,None,450,1,[2.40324650000548],[2.4032566000241786],7,7,91,0,409.23434800002724,,409.2228104000096,409.23434800002724,410.2347882000031,410.2347882000031,410.2347882000031,410.5232134000398,space,0.28226840001298115,None,410.52407230000244,410.63445256668297,410.95094360003714,410.93373900000006,410.93427120003616,410.95094360003714,410.95094360003714,410.95094360003714,413.3550639000023,450,1,[2.40324650000548],[2.4032566000241786],874043,001,2024-11-14_12h00.52.057,6.0 Intentional Binding,2024.2.4,60.56656387108725,2024-11-14 12h01.04.102328 +0530,
0.7,1000,exp,92,8,7,space,0.4114642000058666,None,700,1,[2.0541177000268362],[2.054128799994942],7,8,92,11,413.367975000001,,413.35537290002685,413.367975000001,414.367864400032,414.367864400032,414.367864400032,414.78828209999483,space,0.4114642000058666,None,414.7889538000454,415.50120106665804,415.81673419999424,415.80177590000676,415.8022118000081,415.81673419999424,415.81673419999424,415.81673419999424,417.8716822999995,700,1,[2.0541177000268362],[2.054128799994942],874043,001,2024-11-14_12h00.52.057,6.0 Intentional Binding,2024.2.4,60.56656387108725,2024-11-14 12h01.04.102328 +0530,
0.4,1000,exp,93,9,7,space,0.34026309999171644,None,120,1,[1.9528021999867633],[1.9528101999894716],7,9,93,4,417.88448680000147,,417.8721840000362,417.88448680000147,418.8850735000451,418.8850735000451,418.8850735000451,419.23908220004523,space,0.34026309999171644,None,419.23974290001206,419.6510383666648,419.984471200034,419.9579040000099,419.95832219999284,419.984471200034,419.984471200034,419.984471200034,421.93795759999193,120,1,[1.9528021999867633],[1.9528101999894716],874043,001,2024-11-14_12h00.52.057,6.0 Intentional Binding,2024.2.4,60.56656387108725,2024-11-14 12h01.04.102328 +0530,
0.7,1000,exp,94,10,7,space,0.4505324000492692,None,450,1,[1.9210829999647103],[1.9210904999636114],7,10,94,5,421.95095389999915,,421.938203800004,421.95095389999915,422.950736400031,422.950736400031,422.950736400031,423.40519530000165,space,0.4505324000492692,None,423.40606200002367,424.1174111666662,424.43331340001896,424.4169200999895,424.41737199999625,424.43331340001896,424.43331340001896,424.43331340001896,426.35508930002106,450,1,[1.9210829999647103],[1.9210904999636114],874043,001,2024-11-14_12h00.52.057,6.0 Intentional Binding,2024.2.4,60.56656387108725,2024-11-14 12h01.04.102328 +0530,
0.1,1000,exp,95,11,7,space,0.30068519996711984,None,600,1,[2.337420600000769],[2.3374302000156604],7,11,95,3,426.36763809999684,,426.35533120000036,426.36763809999684,427.3677893000422,427.3677893000422,427.3677893000422,427.67255529999966,space,0.30068519996711984,None,427.67320469999686,427.78412936668997,428.09979860001476,428.0861699000234,428.08658619999187,428.09979860001476,428.09979860001476,428.09979860001476,430.4379487000406,600,1,[2.337420600000769],[2.3374302000156604],874043,001,2024-11-14_12h00.52.057,6.0 Intentional Binding,2024.2.4,60.56656387108725,2024-11-14 12h01.04.102328 +0530,
0.4,1000,exp,96,0,8,space,0.35042620002059266,None,500,1,[2.2862590000149794],[2.2862667000154033],8,0,96,4,430.45090910000727,,430.43824600003427,430.45090910000727,431.45061749999877,431.45061749999877,431.45061749999877,431.80499860004056,space,0.35042620002059266,None,431.8057230000268,432.2178317667024,432.5509376000264,432.52367700001923,432.5241958000115,432.5509376000264,432.5509376000264,432.5509376000264,434.83794100000523,500,1,[2.2862590000149794],[2.2862667000154033],874043,001,2024-11-14_12h00.52.057,6.0 Intentional Binding,2024.2.4,60.56656387108725,2024-11-14 12h01.04.102328 +0530,
0.1,1000,exp,97,1,8,space,0.37499129999196157,None,500,1,[4.138433699961752],[4.138441399962176],8,1,97,6,434.85123790003126,,434.83819189999485,434.85123790003126,435.851062700036,435.851062700036,435.851062700036,436.2379515999928,space,0.37499129999196157,None,436.23879239999224,436.3507668667046,436.6667443999904,436.6517267000163,436.652140900027,436.6667443999904,436.6667443999904,436.6667443999904,440.8058871999965,500,1,[4.138433699961752],[4.138441399962176],874043,001,2024-11-14_12h00.52.057,6.0 Intentional Binding,2024.2.4,60.56656387108725,2024-11-14 12h01.04.102328 +0530,
0.7,400,unexp,98,2,8,space,0.23916320002172142,None,670,1,[1.6872845000470988],[1.6872938000014983],8,2,98,2,440.8171064000344,,440.8061907000374,440.8171064000344,441.81733940000413,441.81733940000413,441.81733940000413,442.0721091000014,space,0.23916320002172142,None,442.07300620002206,442.7841693667035,443.1000316000427,443.08398009999655,443.0844087000005,443.1000316000427,443.1000316000427,443.1000316000427,444.7880177000188,670,1,[1.6872845000470988],[1.6872938000014983],874043,001,2024-11-14_12h00.52.057,6.0 Intentional Binding,2024.2.4,60.56656387108725,2024-11-14 12h01.04.102328 +0530,
0.7,1000,exp,99,3,8,space,0.42644160002237186,None,670,1,[2.038016200007405],[2.038023700006306],8,3,99,8,444.8006703000283,,444.7883270000457,444.8006703000283,445.8007241000305,445.8007241000305,445.8007241000305,446.23869220004417,space,0.42644160002237186,None,446.23936180002056,446.95095926669114,447.2837208000128,447.2549832999939,447.2554299000185,447.2837208000128,447.2837208000128,447.2837208000128,449.3224239000119,670,1,[2.038016200007405],[2.038023700006306],874043,001,2024-11-14_12h00.52.057,6.0 Intentional Binding,2024.2.4,60.56656387108725,2024-11-14 12h01.04.102328 +0530,
0.4,1000,exp,100,4,8,space,0.30922420002752915,None,560,1,[2.60692619998008],[2.6069354999926873],8,4,100,10,449.3344584000297,,449.32274850003887,449.3344584000297,450.3341976000229,450.3341976000229,450.3341976000229,450.65492310002446,space,0.30922420002752915,None,450.6557877000305,451.06730406667725,451.4008967000409,451.37233450001804,451.37285810004687,451.4008967000409,451.4008967000409,451.4008967000409,454.00849949999247,560,1,[2.60692619998008],[2.6069354999926873],874043,001,2024-11-14_12h00.52.057,6.0 Intentional Binding,2024.2.4,60.56656387108725,2024-11-14 12h01.04.102328 +0530,
0.1,400,unexp,101,5,8,space,0.2897481999825686,None,200,1,[1.9046830000006594],[1.9046904999995604],8,5,101,0,454.01752440002747,,454.0087638000259,454.01752440002747,455.017716500035,455.017716500035,455.017716500035,455.32207300001755,space,0.2897481999825686,None,455.3229241000372,455.43389826669977,455.74940170004265,455.73515080002835,455.7357625000295,455.74940170004265,455.74940170004265,455.74940170004265,457.65484090003883,200,1,[1.9046830000006594],[1.9046904999995604],874043,001,2024-11-14_12h00.52.057,6.0 Intentional Binding,2024.2.4,60.56656387108725,2024-11-14 12h01.04.102328 +0530,
0.7,1000,exp,102,6,8,space,0.28729559999192134,None,200,1,[1.5367112000240013],[1.5367188000236638],8,6,102,5,457.6676984000369,,457.655150400009,457.6676984000369,458.66719270002795,458.66719270002795,458.66719270002795,458.97116590000223,space,0.28729559999192134,None,458.971855700016,459.68413016666113,460.01738450000994,459.99123939999845,459.99176510004327,460.01738450000994,460.01738450000994,460.01738450000994,461.55482940003276,200,1,[1.5367112000240013],[1.5367188000236638],874043,001,2024-11-14_12h00.52.057,6.0 Intentional Binding,2024.2.4,60.56656387108725,2024-11-14 12h01.04.102328 +0530,
0.4,400,unexp,103,7,8,space,0.35275479999836534,None,450,1,[2.269799499947112],[2.2698128999909386],8,7,103,1,461.5671411000076,,461.55513290001545,461.5671411000076,462.56725290004397,462.56725290004397,462.56725290004397,462.921533500019,space,0.35275479999836534,None,462.9223601000267,463.3341144666813,463.6675659000175,463.6392781000468,463.63980880001327,463.6675659000175,463.6675659000175,463.6675659000175,465.93809780001175,450,1,[2.269799499947112],[2.2698128999909386],874043,001,2024-11-14_12h00.52.057,6.0 Intentional Binding,2024.2.4,60.56656387108725,2024-11-14 12h01.04.102328 +0530,
0.7,1000,exp,104,8,8,space,0.376994599995669,None,500,1,[2.8362175000365824],[2.836224900034722],8,8,104,11,465.9505046000122,,465.9383548999904,465.9505046000122,466.95039300003555,466.95039300003555,466.95039300003555,467.3374252000358,space,0.376994599995669,None,467.33809229999315,468.0506602666612,468.38417410000693,468.35421540000243,468.35487949999515,468.38417410000693,468.38417410000693,468.38417410000693,471.22103800001787,500,1,[2.8362175000365824],[2.836224900034722],874043,001,2024-11-14_12h00.52.057,6.0 Intentional Binding,2024.2.4,60.56656387108725,2024-11-14 12h01.04.102328 +0530,
0.4,1000,exp,105,9,8,space,0.6564624999882653,None,600,1,[1.468798300018534],[1.468805800017435],8,9,105,7,471.23450840002624,,471.221362100041,471.23450840002624,472.23411820002366,472.23411820002366,472.23411820002366,472.9047896999982,space,0.6564624999882653,None,472.90564450004604,473.31687356665884,473.6513186999946,473.6237118000281,473.6242142000119,473.6513186999946,473.6513186999946,473.6513186999946,475.12079250003444,600,1,[1.468798300018534],[1.468805800017435],874043,001,2024-11-14_12h00.52.057,6.0 Intentional Binding,2024.2.4,60.56656387108725,2024-11-14 12h01.04.102328 +0530,
0.1,1000,exp,106,10,8,space,0.27645549998851493,None,600,1,[1.9715870000072755],[1.9715976000297815],8,10,106,9,475.1333913000417,,475.12112670001807,475.1333913000417,476.1339729000465,476.1339729000465,476.1339729000465,476.4218395000207,space,0.27645549998851493,None,476.4226898000343,476.5340562666572,476.8494294999982,476.8344108000165,476.8348245000234,476.8494294999982,476.8494294999982,476.8494294999982,478.8217569999979,600,1,[1.9715870000072755],[1.9715976000297815],874043,001,2024-11-14_12h00.52.057,6.0 Intentional Binding,2024.2.4,60.56656387108725,2024-11-14 12h01.04.102328 +0530,
0.1,1000,exp,107,11,8,space,0.31068039999809116,None,600,1,[1.838864299992565],[1.838871799991466],8,11,107,3,478.8345602999907,,478.8220857999986,478.8345602999907,479.8337434999994,479.8337434999994,479.8337434999994,480.15450190001866,space,0.31068039999809116,None,480.1551528000273,480.26781536668227,480.58254000003217,480.5679457000224,480.56837970000925,480.58254000003217,480.58254000003217,480.58254000003217,482.42216850002296,600,1,[1.838864299992565],[1.838871799991466],874043,001,2024-11-14_12h00.52.057,6.0 Intentional Binding,2024.2.4,60.56656387108725,2024-11-14 12h01.04.102328 +0530,
0.4,1000,exp,108,0,9,space,0.874952599988319,None,560,1,[1.5701440999982879],[1.5701538999564946],9,0,108,4,482.434115800017,,482.4224735000171,482.434115800017,483.43372200004524,483.43372200004524,483.43372200004524,484.32123679999495,space,0.874952599988319,None,484.32190480001736,484.733564266706,485.0673767999979,485.0373264999944,485.0377560000052,485.0673767999979,485.0673767999979,485.0673767999979,486.63828750001267,560,1,[1.5701440999982879],[1.5701538999564946],874043,001,2024-11-14_12h00.52.057,6.0 Intentional Binding,2024.2.4,60.56656387108725,2024-11-14 12h01.04.102328 +0530,
0.4,400,unexp,109,1,9,space,0.4172827000147663,None,560,1,[1.7717787000001408],[1.7717868000036106],9,1,109,1,486.64998089999426,,486.63854449999053,486.64998089999426,487.6505208000308,487.6505208000308,487.6505208000308,488.0720481000026,space,0.4172827000147663,None,488.072699500015,488.4835436666656,488.79914880002616,488.7841304000467,488.7845400000224,488.79914880002616,488.79914880002616,488.79914880002616,490.57160419999855,560,1,[1.7717787000001408],[1.7717868000036106],874043,001,2024-11-14_12h00.52.057,6.0 Intentional Binding,2024.2.4,60.56656387108725,2024-11-14 12h01.04.102328 +0530,
0.1,400,unexp,110,2,9,space,0.35520619997987524,None,560,1,[2.0204055000212975],[2.0204155000392348],9,2,110,0,490.5835539000109,,490.5718441000208,490.5835539000109,491.5836988000083,491.5836988000083,491.5836988000083,491.9544631000026,space,0.35520619997987524,None,491.95533000002615,492.06713756669,492.3827280999976,492.36591340001905,492.36636250000447,492.3827280999976,492.3827280999976,492.3827280999976,494.4038184999954,560,1,[2.0204055000212975],[2.0204155000392348],874043,001,2024-11-14_12h00.52.057,6.0 Intentional Binding,2024.2.4,60.56656387108725,2024-11-14 12h01.04.102328 +0530,
0.7,1000,exp,111,3,9,space,0.260167200001888,None,560,1,[1.687075600028038],[1.687083300028462],9,3,111,11,494.4168392000138,,494.4040676000295,494.4168392000138,495.41712150000967,495.41712150000967,495.41712150000967,495.68797050003195,space,0.260167200001888,None,495.68862610001815,496.40029726666785,496.7335303000291,496.7072251000209,496.709275500034,496.7335303000291,496.7335303000291,496.7335303000291,498.42135740001686,560,1,[1.687075600028038],[1.687083300028462],874043,001,2024-11-14_12h00.52.057,6.0 Intentional Binding,2024.2.4,60.56656387108725,2024-11-14 12h01.04.102328 +0530,
0.7,1000,exp,112,4,9,space,0.4535080000059679,None,450,1,[2.00530219997745],[2.0053123999969102],9,4,112,5,498.4337467000005,,498.42159859999083,498.4337467000005,499.43401230004383,499.43401230004383,499.43401230004383,499.9044666000409,space,0.4535080000059679,None,499.9051080000354,500.6172774666959,500.9493518000236,500.9206742999959,500.92108840000583,500.9493518000236,500.9493518000236,500.9493518000236,502.95538300002227,450,1,[2.00530219997745],[2.0053123999969102],874043,001,2024-11-14_12h00.52.057,6.0 Intentional Binding,2024.2.4,60.56656387108725,2024-11-14 12h01.04.102328 +0530,
0.4,1000,exp,113,5,9,space,0.6296190000139177,None,340,1,[2.7871723999851383],[2.7871798999840394],9,5,113,7,502.967560900026,,502.9556248000008,502.967560900026,503.9669937000144,503.9669937000144,503.9669937000144,504.6044168000226,space,0.6296190000139177,None,504.6050699999905,505.0167663666691,505.33335420000367,505.3157912000315,505.31621439999435,505.33335420000367,505.33335420000367,505.33335420000367,508.12126620003255,340,1,[2.7871723999851383],[2.7871798999840394],874043,001,2024-11-14_12h00.52.057,6.0 Intentional Binding,2024.2.4,60.56656387108725,2024-11-14 12h01.04.102328 +0530,
0.1,1000,exp,114,6,9,space,0.6374685000046156,None,670,1,[1.871732100029476],[1.8717402000329457],9,6,114,3,508.13379729998996,,508.1215704000206,508.13379729998996,509.13299870002083,509.13299870002083,509.13299870002083,509.7877681000391,space,0.6374685000046156,None,509.7888755000313,509.9000565666977,510.2157333000214,510.2009173000115,510.20133010001155,510.2157333000214,510.2157333000214,510.2157333000214,512.0882088000071,670,1,[1.871732100029476],[1.8717402000329457],874043,001,2024-11-14_12h00.52.057,6.0 Intentional Binding,2024.2.4,60.56656387108725,2024-11-14 12h01.04.102328 +0530,
0.7,400,unexp,115,7,9,space,0.36363099998561665,None,340,1,[2.854576400015503],[2.854586700035725],9,7,115,2,512.0999997000326,,512.0885261000367,512.0999997000326,513.0997502999962,513.0997502999962,513.0997502999962,513.4704316999996,space,0.36363099998561665,None,513.4713962000096,514.1833944667053,514.5153041000012,514.4890249000164,514.4894363000058,514.5153041000012,514.5153041000012,514.5153041000012,517.3706862000399,340,1,[2.854576400015503],[2.854586700035725],874043,001,2024-11-14_12h00.52.057,6.0 Intentional Binding,2024.2.4,60.56656387108725,2024-11-14 12h01.04.102328 +0530,
0.1,1000,exp,116,8,9,space,0.26954180002212524,None,200,1,[1.8214322999701835],[1.8214397999690846],9,8,116,9,517.3834147000453,,517.3711258000112,517.3834147000453,518.3832316999906,518.3832316999906,518.3832316999906,518.654136200028,space,0.26954180002212524,None,518.6548420999898,518.766392166672,519.0821216999902,519.0653124999953,519.06589540001,519.0821216999902,519.0821216999902,519.0821216999902,520.9042958000209,200,1,[1.8214322999701835],[1.8214397999690846],874043,001,2024-11-14_12h00.52.057,6.0 Intentional Binding,2024.2.4,60.56656387108725,2024-11-14 12h01.04.102328 +0530,
0.7,1000,exp,117,9,9,space,0.349206899991259,None,340,1,[1.9029897999716923],[1.9029995999881066],9,9,117,8,520.9172487999895,,520.9045414000284,520.9172487999895,521.9166043000296,521.9166043000296,521.9166043000296,522.2707605000469,space,0.349206899991259,None,522.2714300000225,522.983245466665,523.3174286000431,523.2892048000358,523.2896336000413,523.3174286000431,523.3174286000431,523.3174286000431,525.2211683000205,340,1,[1.9029897999716923],[1.9029995999881066],874043,001,2024-11-14_12h00.52.057,6.0 Intentional Binding,2024.2.4,60.56656387108725,2024-11-14 12h01.04.102328 +0530,
0.4,1000,exp,118,10,9,space,0.2670475999475457,None,560,1,[1.722023700014688],[1.722033299971372],9,10,118,10,525.2333292000112,,525.2214134000242,525.2333292000112,526.2328785000136,526.2328785000136,526.2328785000136,526.5044080000371,space,0.2670475999475457,None,526.5052840000135,526.91644236667,527.2321162000299,527.2148464000202,527.2155390999978,527.2321162000299,527.2321162000299,527.2321162000299,528.9549154000124,560,1,[1.722023700014688],[1.722033299971372],874043,001,2024-11-14_12h00.52.057,6.0 Intentional Binding,2024.2.4,60.56656387108725,2024-11-14 12h01.04.102328 +0530,
0.1,1000,exp,119,11,9,space,0.4236021999968216,None,340,1,[1.8215856999740936],[1.8215962999965996],9,11,119,6,528.9668265000219,,528.9553012000397,528.9668265000219,529.9664225000306,529.9664225000306,529.9664225000306,530.4033946000272,space,0.4236021999968216,None,530.404161500046,530.5162209667071,530.8488376000314,530.82026030001,530.8207702999935,530.8488376000314,530.8488376000314,530.8488376000314,532.6711481999955,340,1,[1.8215856999740936],[1.8215962999965996],874043,001,2024-11-14_12h00.52.057,6.0 Intentional Binding,2024.2.4,60.56656387108725,2024-11-14 12h01.04.102328 +0530,
0.4,400,unexp,120,0,10,space,0.35926840000320226,None,450,1,[2.18838720000349],[2.1883951000054367],10,0,120,1,532.6833898000186,,532.6714584000292,532.6833898000186,533.6829012000235,533.6829012000235,533.6829012000235,534.0546978000202,space,0.35926840000320226,None,534.0555524000083,534.4667615667024,534.781772700022,534.7673717000289,534.767795199994,534.781772700022,534.781772700022,534.781772700022,536.9710312000243,450,1,[2.18838720000349],[2.1883951000054367],874043,001,2024-11-14_12h00.52.057,6.0 Intentional Binding,2024.2.4,60.56656387108725,2024-11-14 12h01.04.102328 +0530,
0.1,1000,exp,121,1,10,space,0.4880590000539087,None,500,1,[2.7038694000220858],[2.7038811999955215],10,1,121,9,536.9833170000347,,536.9712836000253,536.9833170000347,537.982845999999,537.982845999999,537.982845999999,538.4871763000265,space,0.4880590000539087,None,538.4880566000356,538.5995125666998,538.9323117000167,538.9058351000422,538.9064549999894,538.9323117000167,538.9323117000167,538.9323117000167,541.6370184000116,500,1,[2.7038694000220858],[2.7038811999955215],874043,001,2024-11-14_12h00.52.057,6.0 Intentional Binding,2024.2.4,60.56656387108725,2024-11-14 12h01.04.102328 +0530,
0.4,1000,exp,122,2,10,space,0.2583042999613099,None,500,1,[1.5546813000109978],[1.5546919999760576],10,2,122,7,541.6501090000384,,541.6374145000009,541.6501090000384,542.6496935000177,542.6496935000177,542.6496935000177,542.9206843000138,space,0.2583042999613099,None,542.9215288000414,543.3328265667117,543.6485738999909,543.6314950000378,543.6321990000433,543.6485738999909,543.6485738999909,543.6485738999909,545.2039814000018,500,1,[1.5546813000109978],[1.5546919999760576],874043,001,2024-11-14_12h00.52.057,6.0 Intentional Binding,2024.2.4,60.56656387108725,2024-11-14 12h01.04.102328 +0530,
0.7,1000,exp,123,3,10,space,0.39519269997254014,None,500,1,[2.4049156999681145],[2.4049251999822445],10,3,123,8,545.2164647000027,,545.2042891000165,545.2164647000027,546.2161994000198,546.2161994000198,546.2161994000198,546.6210164999939,space,0.39519269997254014,None,546.6216664999956,547.3331116666707,547.6487128000008,547.631642399996,547.6320718000061,547.6487128000008,547.6487128000008,547.6487128000008,550.0543399000308,500,1,[2.4049156999681145],[2.4049251999822445],874043,001,2024-11-14_12h00.52.057,6.0 Intentional Binding,2024.2.4,60.56656387108725,2024-11-14 12h01.04.102328 +0530,
0.1,400,unexp,124,4,10,space,0.3602190999663435,None,600,1,[1.7029156000353396],[1.702925799996592],10,4,124,0,550.0673935000086,,550.0546218000236,550.0673935000086,551.0663916000049,551.0663916000049,551.0832235999987,551.4365773000172,space,0.3602190999663435,None,551.4374584000325,551.5499697667003,551.883374600031,551.8555709000211,551.8559860000387,551.883374600031,551.883374600031,551.883374600031,553.5870642000227,600,1,[1.7029156000353396],[1.702925799996592],874043,001,2024-11-14_12h00.52.057,6.0 Intentional Binding,2024.2.4,60.56656387108725,2024-11-14 12h01.04.102328 +0530,
0.1,1000,exp,125,5,10,space,0.34886899997945875,None,600,1,[1.554506600019522],[1.554514100018423],10,5,125,3,553.5991836999892,,553.587429200008,553.5991836999892,554.5992998000002,554.5992998000002,554.5992998000002,554.955332600046,space,0.34886899997945875,None,554.9560114000342,555.0663801666853,555.381714600022,555.3651978000416,555.3656243000296,555.381714600022,555.381714600022,555.381714600022,556.9370403999928,600,1,[1.554506600019522],[1.554514100018423],874043,001,2024-11-14_12h00.52.057,6.0 Intentional Binding,2024.2.4,60.56656387108725,2024-11-14 12h01.04.102328 +0530,
0.4,1000,exp,126,6,10,space,0.3062481000088155,None,60,1,[2.071376300009433],[2.0713841000106186],10,6,126,10,556.9490349999978,,556.9373718000134,556.9490349999978,557.9496221000445,557.9496221000445,557.9496221000445,558.2710001000087,space,0.3062481000088155,None,558.2718997999909,558.6825801666748,558.9987494000234,558.9812198000145,558.9817439999897,558.9987494000234,558.9987494000234,558.9987494000234,561.0708021000028,60,1,[2.071376300009433],[2.0713841000106186],874043,001,2024-11-14_12h00.52.057,6.0 Intentional Binding,2024.2.4,60.56656387108725,2024-11-14 12h01.04.102328 +0530,
0.1,1000,exp,127,7,10,space,0.2681062000337988,None,400,1,[2.0557759000221267],[2.0557861999841407],10,7,127,6,561.0833874000236,,561.0710421000258,561.0833874000236,562.0830748000299,562.0830748000299,562.0830748000299,562.3539569000131,space,0.2681062000337988,None,562.3546107000438,562.4661868666919,562.7818135000416,562.7679813000141,562.7684021000168,562.7818135000416,562.7818135000416,562.7818135000416,564.8382982999901,400,1,[2.0557759000221267],[2.0557861999841407],874043,001,2024-11-14_12h00.52.057,6.0 Intentional Binding,2024.2.4,60.56656387108725,2024-11-14 12h01.04.102328 +0530,
0.7,1000,exp,128,8,10,space,0.2968661999912001,None,600,1,[1.5209183999686502],[1.520930500002578],10,8,128,5,564.8494141999981,,564.8386009000242,564.8494141999981,565.8491053000325,565.8491053000325,565.8491053000325,566.1538248000434,space,0.2968661999912001,None,566.1544546000077,566.8672732666639,567.1985810000333,567.174780500005,567.1751995999948,567.1985810000333,567.1985810000333,567.1985810000333,568.7203426000196,600,1,[1.5209183999686502],[1.520930500002578],874043,001,2024-11-14_12h00.52.057,6.0 Intentional Binding,2024.2.4,60.56656387108725,2024-11-14 12h01.04.102328 +0530,
0.4,1000,exp,129,9,10,space,0.28246459999354556,None,400,1,[1.4209145000204444],[1.420921900018584],10,9,129,4,568.7329030000255,,568.7207542000106,568.7329030000255,569.7325450000353,569.7325450000353,569.7325450000353,570.0202586000087,space,0.28246459999354556,None,570.0209043000359,570.4325189666745,570.7482224000269,570.7361749000265,570.736588800035,570.7482224000269,570.7482224000269,570.7482224000269,572.1698411999969,400,1,[1.4209145000204444],[1.420921900018584],874043,001,2024-11-14_12h00.52.057,6.0 Intentional Binding,2024.2.4,60.56656387108725,2024-11-14 12h01.04.102328 +0530,
0.7,1000,exp,130,10,10,space,0.3830119000049308,None,500,1,[1.569821499986574],[1.5698288999847136],10,10,130,11,572.1826448999927,,572.1701443000347,572.1826448999927,573.1826500000316,573.1826500000316,573.1826500000316,573.5705284000142,space,0.3830119000049308,None,573.5713625000208,574.2823484666917,574.6159488999983,574.5871773000108,574.5876008000341,574.6159488999983,574.6159488999983,574.6159488999983,576.1865473000216,500,1,[1.569821499986574],[1.5698288999847136],874043,001,2024-11-14_12h00.52.057,6.0 Intentional Binding,2024.2.4,60.56656387108725,2024-11-14 12h01.04.102328 +0530,
0.7,400,unexp,131,11,10,space,0.22392759996000677,None,500,1,[1.3215904000098817],[1.3216001000255346],10,11,131,2,576.1994485000032,,576.1868188999943,576.1994485000032,577.1994852999924,577.1994852999924,577.1994852999924,577.4366409000359,space,0.22392759996000677,None,577.437556800025,578.1492787667123,578.4654700999963,578.4484832000453,578.4489361000014,578.4654700999963,578.4654700999963,578.4654700999963,579.7879016000079,500,1,[1.3215904000098817],[1.3216001000255346],874043,001,2024-11-14_12h00.52.057,6.0 Intentional Binding,2024.2.4,60.56656387108725,2024-11-14 12h01.04.102328 +0530,
0.1,1000,exp,132,0,11,space,0.3690632000216283,None,600,1,[2.337236599996686],[2.3372441999963485],11,0,132,9,579.799472600047,,579.788238100009,579.799472600047,580.7993822999997,580.7993822999997,580.7993822999997,581.1709260999924,space,0.3690632000216283,None,581.1715825000429,581.2827696666975,581.6156223000144,581.5846526999958,581.5850959999952,581.6156223000144,581.6156223000144,581.6156223000144,583.9535036000307,600,1,[2.337236599996686],[2.3372441999963485],874043,001,2024-11-14_12h00.52.057,6.0 Intentional Binding,2024.2.4,60.56656387108725,2024-11-14 12h01.04.102328 +0530,
0.4,400,unexp,133,1,11,space,0.4296910000266507,None,300,1,[1.8698085999931209],[1.8698161999927834],11,1,133,1,583.9660014000256,,583.9537450000062,583.9660014000256,584.9659492000355,584.9659492000355,584.9659492000355,585.4037405000417,space,0.4296910000266507,None,585.4046011000173,585.815658666663,586.1491543000448,586.1182091000373,586.118890999991,586.1491543000448,586.1491543000448,586.1491543000448,588.01960530004,300,1,[1.8698085999931209],[1.8698161999927834],874043,001,2024-11-14_12h00.52.057,6.0 Intentional Binding,2024.2.4,60.56656387108725,2024-11-14 12h01.04.102328 +0530,
0.1,1000,exp,134,2,11,space,0.4994542000349611,None,400,1,[2.1381047000177205],[2.13811210001586],11,2,134,3,588.032581300009,,588.0199438999989,588.032581300009,589.0328203000245,589.0328203000245,589.0328203000245,589.5368839000002,space,0.4994542000349611,None,589.537537700031,589.6496211667002,589.9647153000114,589.950146600022,589.9505742000183,589.9647153000114,589.9647153000114,589.9647153000114,592.1035906000179,400,1,[2.1381047000177205],[2.13811210001586],874043,001,2024-11-14_12h00.52.057,6.0 Intentional Binding,2024.2.4,60.56656387108725,2024-11-14 12h01.04.102328 +0530,
0.4,1000,exp,135,3,11,space,1.4051119000068866,None,200,1,[1.771080099977553],[1.771090899943374],11,3,135,7,592.1154413000331,,592.1038929999922,592.1154413000331,593.115502700035,593.115502700035,593.115502700035,594.5368460000027,space,1.4051119000068866,None,594.5377115000156,594.9496742666854,595.2814947000006,595.2536993999965,595.254149400047,595.2814947000006,595.2814947000006,595.2814947000006,597.0532669000095,200,1,[1.771080099977553],[1.771090899943374],874043,001,2024-11-14_12h00.52.057,6.0 Intentional Binding,2024.2.4,60.56656387108725,2024-11-14 12h01.04.102328 +0530,
0.7,1000,exp,136,4,11,space,0.4714084999868646,None,500,1,[2.004362499981653],[2.0043704999843612],11,4,136,5,597.0661240000045,,597.0535725000082,597.0661240000045,598.0657629999914,598.0657629999914,598.0657629999914,598.553535700019,space,0.4714084999868646,None,598.5543906000094,599.265364266703,599.5985448000138,599.5691891000024,599.5696052000276,599.5985448000138,599.5985448000138,599.5985448000138,601.6036180999945,500,1,[2.004362499981653],[2.0043704999843612],874043,001,2024-11-14_12h00.52.057,6.0 Intentional Binding,2024.2.4,60.56656387108725,2024-11-14 12h01.04.102328 +0530,
0.1,1000,exp,137,5,11,space,0.4961540999938734,None,400,1,[1.9362744000391103],[1.9362823000410572],11,5,137,6,601.6154631000245,,601.6039277000236,601.6154631000245,602.6162152999896,602.6162152999896,602.6162152999896,603.1199499000213,space,0.4961540999938734,None,603.1208172999904,603.2326920667003,603.5663967000437,603.5373641999904,603.5378234999953,603.5663967000437,603.5663967000437,603.5663967000437,605.5033676000312,400,1,[1.9362744000391103],[1.9362823000410572],874043,001,2024-11-14_12h00.52.057,6.0 Intentional Binding,2024.2.4,60.56656387108725,2024-11-14 12h01.04.102328 +0530,
0.4,1000,exp,138,6,11,space,0.7269305000081658,None,400,1,[1.7217675999854691],[1.721777500002645],11,6,138,10,605.5157143000397,,605.5036116000265,605.5157143000397,606.5156633000006,606.5156633000006,606.5156633000006,607.2535040000221,space,0.7269305000081658,None,607.2543712999905,607.6656638666793,607.9812210000237,607.9642109000124,607.9649050000007,607.9812210000237,607.9812210000237,607.9812210000237,609.7037285999977,400,1,[1.7217675999854691],[1.721777500002645],874043,001,2024-11-14_12h00.52.057,6.0 Intentional Binding,2024.2.4,60.56656387108725,2024-11-14 12h01.04.102328 +0530,
0.7,1000,exp,139,7,11,space,0.4128404000075534,None,500,1,[1.7544475000468083],[1.7544585000141524],11,7,139,11,609.7165995000396,,609.7040574999992,609.7165995000396,610.7154383000452,610.7154383000452,610.7154383000452,611.1363510999945,space,0.4128404000075534,None,611.1371031000162,611.8491237667079,612.1644362999941,612.1497319000191,612.1502580000088,612.1644362999941,612.1644362999941,612.1644362999941,613.9196207000059,500,1,[1.7544475000468083],[1.7544585000141524],874043,001,2024-11-14_12h00.52.057,6.0 Intentional Binding,2024.2.4,60.56656387108725,2024-11-14 12h01.04.102328 +0530,
0.1,400,unexp,140,8,11,space,0.24367960001109168,None,600,1,[2.5377721000113524],[2.5377800000132993],11,8,140,0,613.9322399999946,,613.9199254999985,613.9322399999946,614.9329902000027,614.9329902000027,614.9329902000027,615.1864216999966,space,0.24367960001109168,None,615.1870533000329,615.2989886666803,615.6147004000377,615.6016867000144,615.6021201999974,615.6147004000377,615.6147004000377,615.6147004000377,618.153151000035,600,1,[2.5377721000113524],[2.5377800000132993],874043,001,2024-11-14_12h00.52.057,6.0 Intentional Binding,2024.2.4,60.56656387108725,2024-11-14 12h01.04.102328 +0530,
0.7,1000,exp,141,9,11,space,0.41423709999071434,None,700,1,[1.9358351999544539],[1.9358431999571621],11,9,141,8,618.1658036000445,,618.1534087000182,618.1658036000445,619.1661411999958,619.1661411999958,619.1661411999958,619.5867805000162,space,0.41423709999071434,None,619.5876482000458,620.2986672666777,620.6330370000214,620.6045946000377,620.6050142000313,620.6330370000214,620.6330370000214,620.6330370000214,622.5696657000226,700,1,[1.9358351999544539],[1.9358431999571621],874043,001,2024-11-14_12h00.52.057,6.0 Intentional Binding,2024.2.4,60.56656387108725,2024-11-14 12h01.04.102328 +0530,
0.7,400,unexp,142,10,11,space,0.25418119999812916,None,600,1,[1.437528199981898],[1.437535899982322],11,10,142,2,622.582030199992,,622.5699076000019,622.582030199992,623.5823883000412,623.5823883000412,623.5823883000412,623.8534525000141,space,0.25418119999812916,None,623.8541104000178,624.5654032666973,624.8978699000436,624.8713639000198,624.8717795000412,624.8978699000436,624.8978699000436,624.8978699000436,626.3362622000277,600,1,[1.437528199981898],[1.437535899982322],874043,001,2024-11-14_12h00.52.057,6.0 Intentional Binding,2024.2.4,60.56656387108725,2024-11-14 12h01.04.102328 +0530,
0.4,1000,exp,143,11,11,space,0.28172989998711273,None,500,1,[1.870471499976702],[1.8704788999748416],11,11,143,4,626.3483499000431,,626.3366234000423,626.3483499000431,627.348978199996,627.348978199996,627.348978199996,627.6364951000432,space,0.28172989998711273,None,627.6373651000322,628.0484929666893,628.365122999996,628.348877600045,628.3493056000443,628.365122999996,628.365122999996,628.365122999996,630.2363214000361,500,1,[1.870471499976702],[1.8704788999748416],874043,001,2024-11-14_12h00.52.057,6.0 Intentional Binding,2024.2.4,60.56656387108725,2024-11-14 12h01.04.102328 +0530,
0.7,1000,exp,144,0,12,space,0.29424529999960214,None,700,1,[2.6719974000006914],[2.6720053000026383],12,0,144,5,630.2497112000128,,630.2365833999938,630.2497112000128,631.2487039000262,631.2487039000262,631.2487039000262,631.5527622000081,space,0.29424529999960214,None,631.5536511000246,632.266050666691,632.5973178000422,632.5730960000074,632.573509400012,632.5973178000422,632.5973178000422,632.5973178000422,635.2700425999938,700,1,[2.6719974000006914],[2.6720053000026383],874043,001,2024-11-14_12h00.52.057,6.0 Intentional Binding,2024.2.4,60.56656387108725,2024-11-14 12h01.04.102328 +0530,
0.4,400,unexp,145,1,12,space,0.2780054000322707,None,600,1,[1.5521697999793105],[1.5521772999782115],12,1,145,1,635.282987500017,,635.2703475000453,635.282987500017,636.2823076000204,636.2823076000204,636.2823076000204,636.5692542000324,space,0.2780054000322707,None,636.5701452000067,636.9822631666941,637.3158372000325,637.2877325000009,637.2881641000276,637.3158372000325,637.3158372000325,637.3158372000325,638.8687784000067,600,1,[1.5521697999793105],[1.5521772999782115],874043,001,2024-11-14_12h00.52.057,6.0 Intentional Binding,2024.2.4,60.56656387108725,2024-11-14 12h01.04.102328 +0530,
0.4,1000,exp,146,2,12,space,0.3056310000247322,None,500,1,[2.2544908999698237],[2.254498499969486],12,2,146,10,638.8815205999999,,638.8690855000168,638.8815205999999,639.8815541000222,639.8815541000222,639.8815541000222,640.2027252000407,space,0.3056310000247322,None,640.203556100023,640.6153709666726,640.9310713000013,640.9148616000311,640.9153149999911,640.9310713000013,640.9310713000013,640.9310713000013,643.1863127000397,500,1,[2.2544908999698237],[2.254498499969486],874043,001,2024-11-14_12h00.52.057,6.0 Intentional Binding,2024.2.4,60.56656387108725,2024-11-14 12h01.04.102328 +0530,
0.7,1000,exp,147,3,12,space,0.29172879998805,None,400,1,[1.5192662000190467],[1.5192739000194706],12,3,147,8,643.1986378000001,,643.1865721000358,643.1986378000001,644.1985365000437,644.1985365000437,644.1985365000437,644.5032040000078,space,0.29172879998805,None,644.5039814999909,645.2157510666914,645.5489002999966,645.522808800044,645.5232257000171,645.5489002999966,645.5489002999966,645.5489002999966,647.0690105000394,400,1,[1.5192662000190467],[1.5192739000194706],874043,001,2024-11-14_12h00.52.057,6.0 Intentional Binding,2024.2.4,60.56656387108725,2024-11-14 12h01.04.102328 +0530,
0.7,400,unexp,148,4,12,space,0.4116765999933705,None,500,1,[1.2210493000457063],[1.2210595000069588],12,4,148,2,647.0817359000212,,647.0692703000386,647.0817359000212,648.0825136000058,648.0825136000058,648.0825136000058,648.5042951999931,space,0.4116765999933705,None,648.5050386000075,649.2151902666703,649.5307075000019,649.51572700002,649.5161413000314,649.5307075000019,649.5307075000019,649.5307075000019,650.7524918999989,500,1,[1.2210493000457063],[1.2210595000069588],874043,001,2024-11-14_12h00.52.057,6.0 Intentional Binding,2024.2.4,60.56656387108725,2024-11-14 12h01.04.102328 +0530,
0.1,1000,exp,149,5,12,space,0.2408276000060141,None,500,1,[1.7200181999942288],[1.7200256999931298],12,5,149,9,650.7650563000352,,650.7527939000283,650.7650563000352,651.7650372000062,651.7650372000062,651.7650372000062,652.019182900025,space,0.2408276000060141,None,652.0198892999906,652.1317757666732,652.4666733000195,652.4350990999956,652.4356341999955,652.4666733000195,652.4666733000195,652.4666733000195,654.1873870000127,500,1,[1.7200181999942288],[1.7200256999931298],874043,001,2024-11-14_12h00.52.057,6.0 Intentional Binding,2024.2.4,60.56656387108725,2024-11-14 12h01.04.102328 +0530,
0.1,1000,exp,150,6,12,space,0.2624316999572329,None,700,1,[1.7702797999954782],[1.7702877999981865],12,6,150,3,654.1985309000011,,654.1876289999927,654.1985309000011,655.1985771000036,655.1985771000036,655.1985771000036,655.4696592999971,space,0.2624316999572329,None,655.4705406000139,655.5817606666863,655.8976182999904,655.8805013000383,655.8809263000148,655.8976182999904,655.8976182999904,655.8976182999904,657.6685871999944,700,1,[1.7702797999954782],[1.7702877999981865],874043,001,2024-11-14_12h00.52.057,6.0 Intentional Binding,2024.2.4,60.56656387108725,2024-11-14 12h01.04.102328 +0530,
0.7,1000,exp,151,7,12,space,0.3207168999942951,None,88,1,[1.287251900008414],[1.287260300014168],12,7,151,11,657.6819741000072,,657.6688341000117,657.6819741000072,658.6818969000014,658.6818969000014,658.6818969000014,659.0189192999969,space,0.3207168999942951,None,659.019776000001,659.7318544666671,660.0473532000324,660.0299766000244,660.0305079999962,660.0473532000324,660.0473532000324,660.0473532000324,661.3352404999896,88,1,[1.287251900008414],[1.287260300014168],874043,001,2024-11-14_12h00.52.057,6.0 Intentional Binding,2024.2.4,60.56656387108725,2024-11-14 12h01.04.102328 +0530,
0.1,400,unexp,152,8,12,space,0.4493996000383049,None,99,1,[1.6041516999830492],[1.6041600999888033],12,8,152,0,661.348209800024,,661.3354799000081,661.348209800024,662.3483013000223,662.3483013000223,662.3483013000223,662.802463400003,space,0.4493996000383049,None,662.8032275000005,662.9153000667031,663.2488054000423,663.2193179000169,663.2197440000018,663.2488054000423,663.2488054000423,663.2488054000423,664.8536683000275,99,1,[1.6041516999830492],[1.6041600999888033],874043,001,2024-11-14_12h00.52.057,6.0 Intentional Binding,2024.2.4,60.56656387108725,2024-11-14 12h01.04.102328 +0530,
0.1,1000,exp,153,9,12,space,0.47626249998575076,None,99,1,[1.4188075000420213],[1.4188160000485368],12,9,153,6,664.8649272000184,,664.8540419000201,664.8649272000184,665.8650779000018,665.8650779000018,665.8650779000018,666.3525449000299,space,0.47626249998575076,None,666.3532140000025,666.4650141666682,666.7993792000343,666.7716141000274,666.7720495000249,666.7993792000343,666.7993792000343,666.7993792000343,668.2188634999911,99,1,[1.4188075000420213],[1.4188160000485368],874043,001,2024-11-14_12h00.52.057,6.0 Intentional Binding,2024.2.4,60.56656387108725,2024-11-14 12h01.04.102328 +0530,
0.4,1000,exp,154,10,12,space,0.36604380002245307,None,77,1,[1.1553191000130028],[1.155327100015711],12,10,154,4,668.2319967999938,,668.2191914000432,668.2319967999938,669.232024100027,669.232024100027,669.232024100027,669.6027553000022,space,0.36604380002245307,None,669.6035944000469,670.0146593666907,670.3305332000018,670.3150401000166,670.3154562000418,670.3305332000018,670.3305332000018,670.3305332000018,671.486628600047,77,1,[1.1553191000130028],[1.155327100015711],874043,001,2024-11-14_12h00.52.057,6.0 Intentional Binding,2024.2.4,60.56656387108725,2024-11-14 12h01.04.102328 +0530,
0.4,1000,exp,155,11,12,space,0.5481884999899194,None,66,1,[1.2037062000017613],[1.2037137000006624],12,11,155,7,671.498283700028,,671.4868739999947,671.498283700028,672.4982403000467,672.4982403000467,672.4982403000467,673.0524250000017,space,0.5481884999899194,None,673.053048700036,673.4647492666884,673.7984301000251,673.769186599995,673.7695972000365,673.7984301000251,673.7984301000251,673.7984301000251,675.002872000041,66,1,[1.2037062000017613],[1.2037137000006624],874043,001,2024-11-14_12h00.52.057,6.0 Intentional Binding,2024.2.4,60.56656387108725,2024-11-14 12h01.04.102328 +0530,
0.7,1000,exp,156,0,13,space,0.6189013999537565,None,500,1,[1.5045173999969848],[1.5045247999951243],13,0,156,5,675.015394200047,,675.003113600018,675.015394200047,676.015304600005,676.015304600005,676.015304600005,676.6363309000153,space,0.6189013999537565,None,676.6369866000023,677.3482878666875,677.6808071000269,677.6517993000452,677.6522130999947,677.6808071000269,677.6808071000269,677.6808071000269,679.1861586000305,500,1,[1.5045173999969848],[1.5045247999951243],874043,001,2024-11-14_12h00.52.057,6.0 Intentional Binding,2024.2.4,60.56656387108725,2024-11-14 12h01.04.102328 +0530,
0.7,1000,exp,157,1,13,space,0.2694127999711782,None,400,1,[1.3373787999735214],[1.3373968999949284],13,1,157,11,679.1979463000316,,679.1864997000084,679.1979463000316,680.1978977000108,680.1978977000108,680.1978977000108,680.4689273000113,space,0.2694127999711782,None,680.4696098000277,681.1817944666875,681.4974822000368,681.4815434000338,681.4819850000204,681.4974822000368,681.4974822000368,681.4974822000368,682.8357036000234,400,1,[1.3373787999735214],[1.3373968999949284],874043,001,2024-11-14_12h00.52.057,6.0 Intentional Binding,2024.2.4,60.56656387108725,2024-11-14 12h01.04.102328 +0530,
0.1,1000,exp,158,2,13,space,0.5926225000293925,None,500,1,[1.871879100042861],[1.8718867999850772],13,2,158,6,682.8481952000293,,682.8360228000092,682.8481952000293,683.848226000031,683.848226000031,683.848226000031,684.4522144999937,space,0.5926225000293925,None,684.45293150004,684.5649259666718,684.8801385000115,684.8631249000318,684.863613500027,684.8801385000115,684.8801385000115,684.8801385000115,686.7527435999946,500,1,[1.871879100042861],[1.8718867999850772],874043,001,2024-11-14_12h00.52.057,6.0 Intentional Binding,2024.2.4,60.56656387108725,2024-11-14 12h01.04.102328 +0530,
0.1,1000,exp,159,3,13,space,0.3039184999652207,None,400,1,[1.820215800020378],[1.8202245999709703],13,3,159,9,686.7645767999929,,686.7530486999894,686.7645767999929,687.764623199997,687.764623199997,687.764623199997,688.0701243000221,space,0.3039184999652207,None,688.0710741000366,688.1815852666662,688.4977270000381,688.4822311000316,688.4827437000349,688.4977270000381,688.4977270000381,688.4977270000381,690.3186324000126,400,1,[1.820215800020378],[1.8202245999709703],874043,001,2024-11-14_12h00.52.057,6.0 Intentional Binding,2024.2.4,60.56656387108725,2024-11-14 12h01.04.102328 +0530,
0.4,1000,exp,160,4,13,space,0.33828820002963766,None,500,1,[1.6212106000166386],[1.6212183000170626],13,4,160,4,690.3313043999951,,690.3189834000077,690.3313043999951,691.3312342000427,691.3312342000427,691.3312342000427,691.685292500013,space,0.33828820002963766,None,691.686052700039,692.0979134666889,692.430404200044,692.4044291000464,692.4048420999898,692.430404200044,692.430404200044,692.430404200044,694.0523602000321,500,1,[1.6212106000166386],[1.6212183000170626],874043,001,2024-11-14_12h00.52.057,6.0 Intentional Binding,2024.2.4,60.56656387108725,2024-11-14 12h01.04.102328 +0530,
0.7,1000,exp,161,5,13,space,0.4501053999993019,None,300,1,[1.6039374000392854],[1.603945000038948],13,5,161,8,694.0644140000222,,694.0526824000408,694.0644140000222,695.0649798000231,695.0649798000231,695.0649798000231,695.519066000008,space,0.4501053999993019,None,695.5197544000112,696.2310077666809,696.5467073000036,696.5324556000414,696.5328879000153,696.5467073000036,696.5467073000036,696.5467073000036,698.1515689000371,300,1,[1.6039374000392854],[1.603945000038948],874043,001,2024-11-14_12h00.52.057,6.0 Intentional Binding,2024.2.4,60.56656387108725,2024-11-14 12h01.04.102328 +0530,
0.4,1000,exp,162,6,13,space,0.3062722999602556,None,200,1,[1.370281999988947],[1.3702897999901325],13,6,162,7,698.1649334999966,,698.1518240000005,698.1649334999966,699.1645405000309,699.1645405000309,699.1645405000309,699.4847491999972,space,0.3062722999602556,None,699.4854192000348,699.8984966666942,700.2314069000422,700.2019220000366,700.2023387000081,700.2314069000422,700.2314069000422,700.2314069000422,701.6024178999942,200,1,[1.370281999988947],[1.3702897999901325],874043,001,2024-11-14_12h00.52.057,6.0 Intentional Binding,2024.2.4,60.56656387108725,2024-11-14 12h01.04.102328 +0530,
0.1,1000,exp,163,7,13,space,0.29100490000564605,None,200,1,[2.020533000002615],[2.0205404000007547],13,7,163,3,701.6144363000058,,701.6026599000324,701.6144363000058,702.614183800004,702.614183800004,702.614183800004,702.9183066000114,space,0.29100490000564605,None,702.9189598000376,703.0315154666935,703.3645227000234,703.3380538999918,703.3385046999902,703.3645227000234,703.3645227000234,703.3645227000234,705.3857828000328,200,1,[2.020533000002615],[2.0205404000007547],874043,001,2024-11-14_12h00.52.057,6.0 Intentional Binding,2024.2.4,60.56656387108725,2024-11-14 12h01.04.102328 +0530,
0.7,400,unexp,164,8,13,space,0.2583411999512464,None,200,1,[1.4210211000172421],[1.4210308999754488],13,8,164,2,705.3986026000348,,705.3860480000149,705.3986026000348,706.3976147000212,706.3976147000212,706.3976147000212,706.6691000999999,space,0.2583411999512464,None,706.6697413999937,707.3809436666818,707.697264300019,707.6796276000096,707.6802054000436,707.697264300019,707.697264300019,707.697264300019,709.1190141999978,200,1,[1.4210211000172421],[1.4210308999754488],874043,001,2024-11-14_12h00.52.057,6.0 Intentional Binding,2024.2.4,60.56656387108725,2024-11-14 12h01.04.102328 +0530,
